loggingTime(txt),loggingSample(N),identifierForVendor(txt),locationTimestamp_since1970(s),locationLatitude(WGS84),locationLongitude(WGS84),locationAltitude(m),locationSpeed(m/s),locationCourse(°),locationVerticalAccuracy(m),locationHorizontalAccuracy(m),locationFloor(Z),accelerometerTimestamp_sinceReboot(s),accelerometerAccelerationX(G),accelerometerAccelerationY(G),accelerometerAccelerationZ(G),gyroTimestamp_sinceReboot(s),gyroRotationX(rad/s),gyroRotationY(rad/s),gyroRotationZ(rad/s),motionTimestamp_sinceReboot(s),motionYaw(rad),motionRoll(rad),motionPitch(rad),motionRotationRateX(rad/s),motionRotationRateY(rad/s),motionRotationRateZ(rad/s),motionUserAccelerationX(G),motionUserAccelerationY(G),motionUserAccelerationZ(G),motionAttitudeReferenceFrame(txt),motionQuaternionX(R),motionQuaternionY(R),motionQuaternionZ(R),motionQuaternionW(R),motionGravityX(G),motionGravityY(G),motionGravityZ(G),motionMagneticFieldX(µT),motionMagneticFieldY(µT),motionMagneticFieldZ(µT),motionMagneticFieldCalibrationAccuracy(Z)
2017-12-05 15:37:28.197 -0800,1,BF2B89E4-20AD-4334-A98B-17808832B17C,1512517047.465873,49.27716982572304,-122.9074165639976,343.0205,-1,-1,10,65,-9999,105580.8901592917,3.0517578125e-05,-1.001434326171875,0.02703857421875,105580.8863512917,-0.01666925789502397,-0.04837046224689119,0.006699980670421347,105580.8851012917,1.54328816145111,3.071076080038256,1.548107204392083,-0.01592697575688362,-0.04002709314227104,0.01126332022249699,0.006625980138778687,-0.004712939262390137,0.004300951957702637,XArbitraryCorrectedZVertical,-0.4806654453277588,0.5294111371040344,0.5183133482933044,-0.4690797924995422,0.001598500064574182,-0.9997426271438599,0.02263084426522255,-1.44586181640625,-57.38471984863281,-16.95407485961914,2
2017-12-05 15:37:28.217 -0800,2,BF2B89E4-20AD-4334-A98B-17808832B17C,1512517047.465873,49.27716982572304,-122.9074165639976,343.0205,-1,-1,10,65,-9999,105580.9240842917,-0.00537109375,-0.996612548828125,0.0216522216796875,105580.9190842917,-0.01751454522501512,-0.07144462256355573,0.02180143563171567,105580.8851012917,1.54328816145111,3.071076080038256,1.548107204392083,-0.01592697575688362,-0.04002709314227104,0.01126332022249699,0.006625980138778687,-0.004712939262390137,0.004300951957702637,XArbitraryCorrectedZVertical,-0.4806654453277588,0.5294111371040344,0.5183133482933044,-0.4690797924995422,0.001598500064574182,-0.9997426271438599,0.02263084426522255,-1.44586181640625,-57.38471984863281,-16.95407485961914,2
2017-12-05 15:37:28.247 -0800,3,BF2B89E4-20AD-4334-A98B-17808832B17C,1512517047.465873,49.27716982572304,-122.9074165639976,343.0205,-1,-1,10,65,-9999,105580.9580092917,0.0030670166015625,-0.99517822265625,0.0167083740234375,105580.9530092917,-0.01353178781480162,-0.05055159117966608,-0.008313589974900358,105580.9203342917,1.506168087118114,3.106439822105756,1.548561598527433,-0.009268366731703281,-0.0696745440363884,0.03064181283116341,-0.00781559944152832,0.00349128246307373,-0.0003817081451416016,XArbitraryCorrectedZVertical,-0.4798897206783295,0.5299192070960999,0.5186405181884766,-0.4689386487007141,0.0007813129923306406,-0.9997528195381165,0.02221702039241791,-1.7012939453125,-57.25708770751953,-16.93545532226562,2
2017-12-05 15:37:28.287 -0800,4,BF2B89E4-20AD-4334-A98B-17808832B17C,1512517047.465873,49.27716982572304,-122.9074165639976,343.0205,-1,-1,10,65,-9999,105580.9907432917,0.004241943359375,-1.00238037109375,0.0198211669921875,105580.9869342917,-0.005168396727516777,-0.01978462373819866,0.004389688424777608,105580.9555092917,1.478173947872806,3.132893778150511,1.549025787559132,-0.009528880938887596,-0.04659822583198547,0.005898382980376482,0.005242735147476196,0.006324291229248047,0.002899885177612305,XArbitraryCorrectedZVertical,-0.4792202413082123,0.5303156971931458,0.5189807415008545,-0.468798816204071,0.0001894102315418422,-0.999763011932373,0.02177355624735355,-1.545143127441406,-57.37149810791016,-17.03937149047852,2
2017-12-05 15:37:28.332 -0800,5,BF2B89E4-20AD-4334-A98B-17808832B17C,1512517047.465873,49.27716982572304,-122.9074165639976,343.0205,-1,-1,10,65,-9999,105581.0246682917,0.011505126953125,-1.007171630859375,0.0261688232421875,105581.0196682917,-0.007309578243940485,-0.02198332953416808,-0.002023203480133197,105580.9907432917,1.471795714733628,3.138641791544733,1.549095439975656,-0.001142819412052631,-0.02241889387369156,0.01433907728642225,0.004177898168563843,-0.002615809440612793,-0.001879096031188965,XArbitraryCorrectedZVertical,-0.4790041744709015,0.5304763317108154,0.5191171169281006,-0.4686867892742157,6.403470615623519e-05,-0.9997645616531372,0.02170027606189251,-1.555934906005859,-57.34377288818359,-17.21982574462891,2
2017-12-05 15:37:28.348 -0800,6,BF2B89E4-20AD-4334-A98B-17808832B17C,1512517047.465873,49.27716982572304,-122.9074165639976,343.0205,-1,-1,10,65,-9999,105581.0585932917,-0.0049896240234375,-0.9994354248046875,0.02386474609375,105581.0535932917,-0.009481918745118119,-0.0121061976832822,0.002236256367339536,105581.0259182917,1.445123172098492,-3.117895073246201,1.549249520799032,-0.00225581182166934,-0.01912347413599491,0.007900083437561989,0.01357206702232361,-0.005496382713317871,0.004034519195556641,XArbitraryCorrectedZVertical,-0.4788095057010651,0.5305761694908142,0.5190290808677673,-0.4688701331615448,-0.0005105231539346278,-0.9997678995132446,0.0215392280369997,-1.561779022216797,-57.24263000488281,-17.19644546508789,2
2017-12-05 15:37:28.387 -0800,7,BF2B89E4-20AD-4334-A98B-17808832B17C,1512517047.465873,49.27716982572304,-122.9074165639976,343.0205,-1,-1,10,65,-9999,105581.0913272917,-0.0036773681640625,-1.000274658203125,0.020355224609375,105581.0875182917,-0.0148756189008556,-0.007721036632357728,-0.008474711220850152,105581.0611512917,1.435807397433716,-3.108928903250072,1.54949957203531,-0.005495990626513958,-0.01034629344940186,0.01002430077642202,-0.003836572170257568,-0.0005471706390380859,0.002586483955383301,XArbitraryCorrectedZVertical,-0.4786084890365601,0.5306345820426941,0.5191351771354675,-0.4688916802406311,-0.0006952760741114616,-0.9997732043266296,0.02127829007804394,-1.717681884765625,-57.32571411132812,-17.09646987915039,2
2017-12-05 15:37:28.418 -0800,8,BF2B89E4-20AD-4334-A98B-17808832B17C,1512517047.465873,49.27716982572304,-122.9074165639976,343.0205,-1,-1,10,65,-9999,105581.1252522917,-0.0006103515625,-0.9994964599609375,0.01666259765625,105581.1202522917,-0.007494135307482976,-0.001110538174563042,-0.01282338696484054,105581.0963272917,1.438154686617182,-3.111280816005553,1.549739948630714,-0.008781136944890022,-0.003758667968213558,-0.001776904799044132,-0.003039777278900146,-0.0004962682723999023,-0.0006729364395141602,XArbitraryCorrectedZVertical,-0.4785666465759277,0.530554473400116,0.5192136168479919,-0.4689379334449768,-0.0006375977536663413,-0.9997783303260803,0.02102816849946976,-1.700588226318359,-57.17427062988281,-17.37585258483887,2
2017-12-05 15:37:28.448 -0800,9,BF2B89E4-20AD-4334-A98B-17808832B17C,1512517047.465873,49.27716982572304,-122.9074165639976,343.0205,-1,-1,10,65,-9999,105581.1591772917,0.002044677734375,-1.001495361328125,0.020599365234375,105581.1541772917,-0.003307646073878414,0.01207743554350934,-0.008607070327027089,105581.1315602917,1.449134622007096,-3.122048784806407,1.549881530075912,-0.002469704952090979,0.00723959319293499,-0.0007786015048623085,0.003658592700958252,-0.002217650413513184,-0.0009243488311767578,XArbitraryCorrectedZVertical,-0.4786511063575745,0.5304169654846191,0.5192540287971497,-0.4689626693725586,-0.0004084813117515296,-0.9997813105583191,0.02089807763695717,-1.732139587402344,-57.33441925048828,-16.96273040771484,2
2017-12-05 15:37:28.488 -0800,10,BF2B89E4-20AD-4334-A98B-17808832B17C,1512517047.465873,49.27716982572304,-122.9074165639976,343.0205,-1,-1,10,65,-9999,105581.1919102917,-0.0027618408203125,-1.001190185546875,0.0215301513671875,105581.1881022917,-0.01265294465507547,-0.01870124980675443,-0.003082608961766718,105581.1667352917,1.445077506675674,-3.117503260589884,1.549851679816974,-0.002507520373910666,0.01492594555020332,0.002406698185950518,0.002136647701263428,-0.002294540405273438,0.0005521774291992188,XArbitraryCorrectedZVertical,-0.4787622094154358,0.5303255915641785,0.5191097855567932,-0.4691120684146881,-0.0005039746756665409,-0.9997806549072266,0.02091697230935097,-2.010417938232422,-57.21488952636719,-16.14645385742188,2
2017-12-05 15:37:28.518 -0800,11,BF2B89E4-20AD-4334-A98B-17808832B17C,1512517047.465873,49.27716982572304,-122.9074165639976,343.0205,-1,-1,10,65,-9999,105581.2258362917,0.002105712890625,-0.9974212646484375,0.017120361328125,105581.2208362917,-0.01361088369917697,-0.03627544984018732,-0.005153216709303326,105581.2019692917,1.426544702834714,-3.09958622616511,1.550115726535145,-0.01180161535739899,-0.02354142256081104,0.009031597524881363,0.003171861171722412,0.0001676082611083984,0.003340363502502441,XArbitraryCorrectedZVertical,-0.4784384667873383,0.5304902195930481,0.5192410945892334,-0.4691110253334045,-0.0008677953155711293,-0.9997861385345459,0.02064647898077965,-1.953117370605469,-57.23389434814453,-16.43379592895508,2
2017-12-05 15:37:28.548 -0800,12,BF2B89E4-20AD-4334-A98B-17808832B17C,1512517047.465873,49.27716982572304,-122.9074165639976,343.0205,-1,-1,10,65,-9999,105581.2597612917,-0.0022430419921875,-0.9979248046875,0.019012451171875,105581.2547612917,-0.006258162245577202,-0.01649189136642469,0.003310042918859485,105581.2371442917,1.416302062453941,-3.09046404526348,1.550447240425679,-0.004435786511749029,-0.01144157722592354,0.008949677459895611,0.005006134510040283,0.003195703029632568,-0.001150846481323242,XArbitraryCorrectedZVertical,-0.4780166447162628,0.5307074785232544,0.5195537209510803,-0.468949019908905,-0.001038850983604789,-0.9997929930686951,0.02030068077147007,-1.914028167724609,-57.10655212402344,-16.44933319091797,2
2017-12-05 15:37:28.589 -0800,13,BF2B89E4-20AD-4334-A98B-17808832B17C,1512517047.465873,49.27716982572304,-122.9074165639976,343.0205,-1,-1,10,65,-9999,105581.2924942917,0.0004425048828125,-1.001449584960938,0.0169219970703125,105581.2886862917,-0.003937217355573145,-0.05053028589094545,-0.002999518335756246,105581.2723782917,1.396223243304804,-3.070592634999949,1.550417568419493,0.0009676504414528608,-0.02351057156920433,0.01111435331404209,0.0009112656116485596,-7.033348083496094e-05,0.001375913619995117,XArbitraryCorrectedZVertical,-0.477855771780014,0.5308624505996704,0.5195041298866272,-0.4689928591251373,-0.001445303205400705,-0.9997923374176025,0.020322160795331,-1.670860290527344,-57.27748107910156,-17.17390441894531,2
2017-12-05 15:37:28.619 -0800,14,BF2B89E4-20AD-4334-A98B-17808832B17C,1512517047.465873,49.27716982572304,-122.9074165639976,343.0205,-1,-1,10,65,-9999,105581.3264192917,-0.0022125244140625,-1.001678466796875,0.024169921875,105581.3214192917,-0.007211307599716561,-0.0340666240320756,0.002311357510079771,105581.3075532917,1.389241486717354,-3.064797157683532,1.550414470848658,-0.00316588394343853,-0.04438646510243416,0.006928727962076664,0.002479255199432373,-0.001031696796417236,-0.003842592239379883,XArbitraryCorrectedZVertical,-0.4775083363056183,0.5311749577522278,0.5197554230690002,-0.4687145054340363,-0.001563720521517098,-0.9997922778129578,0.02032209374010563,-1.694404602050781,-57.30868530273438,-17.41179656982422,2
2017-12-05 15:37:28.652 -0800,15,BF2B89E4-20AD-4334-A98B-17808832B17C,1512517047.465873,49.27716982572304,-122.9074165639976,343.0205,-1,-1,10,65,-9999,105581.3603452917,-0.007080078125,-0.999267578125,0.0105438232421875,105581.3553452917,-0.009227853177124561,-0.06700886145191974,-0.02113298219810578,105581.3427862917,1.375066319119737,-3.051525478504146,1.550542319878996,-0.008527899160981178,-0.04000509902834892,0.003720598295331001,-0.009486854076385498,0.004326701164245605,-0.002680063247680664,XArbitraryCorrectedZVertical,-0.4771658480167389,0.5314023494720459,0.5199472904205322,-0.4685922861099243,-0.001819904078729451,-0.9997949004173279,0.02015140652656555,-1.866127014160156,-57.41611480712891,-17.068115234375,2
2017-12-05 15:37:28.689 -0800,16,BF2B89E4-20AD-4334-A98B-17808832B17C,1512517047.465873,49.27716982572304,-122.9074165639976,343.0205,-1,-1,10,65,-9999,105581.3930782917,-0.007415771484375,-0.994232177734375,0.013153076171875,105581.3892702917,-0.004291950412771701,-0.004396346327502807,-0.0149696284873354,105581.3779612917,1.382520778513214,-3.060607956958145,1.550874996479648,-0.01285749115049839,-0.02793518081307411,0.004765340592712164,0.005516797304153442,-0.008102476596832275,0.006691455841064453,XArbitraryCorrectedZVertical,-0.4767144024372101,0.53166264295578,0.5204615592956543,-0.4681856036186218,-0.001610548351891339,-0.9998015761375427,0.01984357461333275,-1.784500122070312,-57.25579071044922,-17.03152847290039,2
2017-12-05 15:37:28.735 -0800,17,BF2B89E4-20AD-4334-A98B-17808832B17C,1512517047.465873,49.27716982572304,-122.9074165639976,343.0205,-1,-1,10,65,-9999,105581.4270032917,0.0019989013671875,-0.9989166259765625,0.0164031982421875,105581.4220032917,0.002287389060269058,-0.03403466609899465,-0.01381301762591398,105581.4131952917,1.387995296046108,-3.06600691680646,1.550877312836876,0.005066206213086843,-0.009215227328240871,-0.002896024845540524,-0.001669794321060181,-0.0041961669921875,0.0002658367156982422,XArbitraryCorrectedZVertical,-0.4767639338970184,0.5316261649131775,0.5204669237136841,-0.4681708514690399,-0.001504032523371279,-0.9998016357421875,0.01986045576632023,-1.858283996582031,-57.35099792480469,-17.28418159484863,2
2017-12-05 15:37:28.750 -0800,18,BF2B89E4-20AD-4334-A98B-17808832B17C,1512517047.465873,49.27716982572304,-122.9074165639976,343.0205,-1,-1,10,65,-9999,105581.4609292917,0.00604248046875,-1.001983642578125,0.01849365234375,105581.4559292917,0.0007310377192267509,-0.1065376288797479,0.007916778972478552,105581.4483702917,1.391105152053758,-3.070920893562846,1.55082130160474,0.00670241005718708,-0.09707566350698471,-0.002560992725193501,0.002829641103744507,-0.008225619792938232,-0.01238834857940674,XArbitraryCorrectedZVertical,-0.4763235151767731,0.532051682472229,0.5208942294120789,-0.4676603078842163,-0.001410566503182054,-0.9998005032539368,0.01992616802453995,-1.926895141601562,-57.33349609375,-17.4830265045166,2
2017-12-05 15:37:28.792 -0800,19,BF2B89E4-20AD-4334-A98B-17808832B17C,1512517047.465873,49.27716982572304,-122.9074165639976,343.0205,-1,-1,10,65,-9999,105581.4936622917,-0.003143310546875,-0.9975433349609375,0.01751708984375,105581.4898542917,0.003710316030698395,-0.07577652039267861,0.005638444659915763,105581.4836042917,1.351558497188149,-3.034392843475145,1.550512601251507,0.007757304236292839,-0.0740249902009964,0.02950171567499638,0.005419403314590454,-0.008720159530639648,0.005445718765258789,XArbitraryCorrectedZVertical,-0.4753762185573578,0.5330072045326233,0.5213565826416016,-0.4670202732086182,-0.002169298939406872,-0.9997943043708801,0.02015845850110054,-1.897781372070312,-57.13368225097656,-17.32828330993652,2
2017-12-05 15:37:28.820 -0800,20,BF2B89E4-20AD-4334-A98B-17808832B17C,1512517047.465873,49.27716982572304,-122.9074165639976,343.0205,-1,-1,10,65,-9999,105581.5275872917,-0.0038909912109375,-1.003189086914062,0.010986328125,105581.5225872917,0.005037369201884879,-0.1328725636351054,-0.01879925413486934,105581.5187792917,1.345252869184621,-3.030666334637121,1.550272660489268,0.01096460781991482,-0.1025539189577103,-0.007920608855783939,-0.006883084774017334,-0.0006226301193237305,-0.006788849830627441,XArbitraryCorrectedZVertical,-0.4747149646282196,0.5337092280387878,0.5218721628189087,-0.4663150012493134,-0.002272187964990735,-0.9997894167900085,0.02039967477321625,-1.876701354980469,-57.44379425048828,-17.21608352661133,2
2017-12-05 15:37:28.850 -0800,21,BF2B89E4-20AD-4334-A98B-17808832B17C,1512517047.465873,49.27716982572304,-122.9074165639976,343.0205,-1,-1,10,65,-9999,105581.5615132917,0.01226806640625,-1.0203857421875,0.0391082763671875,105581.5565132917,0.01208409344623454,-0.1790251453261786,0.06281544799948098,105581.5187792917,1.345252869184621,-3.030666334637121,1.550272660489268,0.01096460781991482,-0.1025539189577103,-0.007920608855783939,-0.006883084774017334,-0.0006226301193237305,-0.006788849830627441,XArbitraryCorrectedZVertical,-0.4747149646282196,0.5337092280387878,0.5218721628189087,-0.4663150012493134,-0.002272187964990735,-0.9997894167900085,0.02039967477321625,-1.876701354980469,-57.44379425048828,-17.21608352661133,2
2017-12-05 15:37:28.892 -0800,22,BF2B89E4-20AD-4334-A98B-17808832B17C,1512517047.465873,49.27716982572304,-122.9074165639976,343.0205,-1,-1,10,65,-9999,105581.5942462917,0.0166473388671875,-1.07513427734375,0.1543731689453125,105581.5904382917,-0.07074447751297389,0.05244509871471242,0.1898647435950191,105581.5891882917,1.202515686494158,-2.898801903303121,1.549285473974263,-0.06238631904125214,-0.0127455610781908,0.1282147020101547,0.010234534740448,-0.007555603981018066,0.01444029808044434,XArbitraryCorrectedZVertical,-0.4711483120918274,0.5370786786079407,0.5235926508903503,-0.4641295969486237,-0.005168634001165628,-0.9997686743736267,0.02086847834289074,-2.292350769042969,-57.12636566162109,-17.51270866394043,2
2017-12-05 15:37:28.921 -0800,23,BF2B89E4-20AD-4334-A98B-17808832B17C,1512517047.465873,49.27716982572304,-122.9074165639976,343.0205,-1,-1,10,65,-9999,105581.6281712917,-0.0344085693359375,-1.059173583984375,0.0382843017578125,105581.6231712917,-0.05858688082065316,0.1731470161681557,0.4691120975919317,105581.5891882917,1.202515686494158,-2.898801903303121,1.549285473974263,-0.06238631904125214,-0.0127455610781908,0.1282147020101547,0.010234534740448,-0.007555603981018066,0.01444029808044434,XArbitraryCorrectedZVertical,-0.4711483120918274,0.5370786786079407,0.5235926508903503,-0.4641295969486237,-0.005168634001165628,-0.9997686743736267,0.02086847834289074,-2.292350769042969,-57.12636566162109,-17.51270866394043,2
2017-12-05 15:37:28.973 -0800,24,BF2B89E4-20AD-4334-A98B-17808832B17C,1512517047.465873,49.27716982572304,-122.9074165639976,343.0205,-1,-1,10,65,-9999,105581.6620972917,-0.1271514892578125,-0.9793243408203125,-0.0294342041015625,105581.6570972917,0.001534779736212665,0.1160424508102407,0.750970947353776,105581.6244212917,0.7803555294034743,-2.473551797440798,1.545289520070526,-0.04609642177820206,0.139807790517807,0.4266131222248077,-0.02369606494903564,-0.03877741098403931,0.02115261554718018,XArbitraryCorrectedZVertical,-0.4689511358737946,0.5386024713516235,0.5206006765365601,-0.4679390490055084,-0.01579369977116585,-0.9996747374534607,0.02001558057963848,-3.213874816894531,-56.98150634765625,-17.16881561279297,2
2017-12-05 15:37:28.991 -0800,25,BF2B89E4-20AD-4334-A98B-17808832B17C,1512517047.465873,49.27716982572304,-122.9074165639976,343.0205,-1,-1,10,65,-9999,105581.6948302917,-0.0335845947265625,-0.9212493896484375,0.04345703125,105581.6910222917,0.00145328700685624,-0.1012512541159406,0.4152310224174485,105581.6595972917,0.3407410152594645,-2.025819200495671,1.526805791485424,0.01596630923449993,0.1485779881477356,0.7639450430870056,-0.07818028330802917,-0.007284581661224365,-0.04512643814086914,XArbitraryCorrectedZVertical,-0.4646382629871368,0.5420084595680237,0.5132157206535339,-0.47639000415802,-0.03949550166726112,-0.9990325570106506,0.01932377181947231,-3.895961761474609,-57.02909088134766,-17.24704551696777,2
2017-12-05 15:37:29.021 -0800,26,BF2B89E4-20AD-4334-A98B-17808832B17C,1512517047.465873,49.27716982572304,-122.9074165639976,343.0205,-1,-1,10,65,-9999,105581.7287562917,-0.0223388671875,-0.9651641845703125,-0.0676727294921875,105581.7237562917,0.06432332980868384,-0.5554688243632772,-0.2200253092562755,105581.6948302917,0.1983286590424614,-1.884546852825512,1.504813559201722,0.003106995718553662,-0.05777129158377647,0.4410854578018188,0.02912753820419312,0.07657450437545776,0.02310895919799805,XArbitraryCorrectedZVertical,-0.4582938849925995,0.547851026058197,0.5075898170471191,-0.481848806142807,-0.06271211057901382,-0.99782395362854,0.02034806273877621,-5.459064483642578,-56.88848876953125,-17.44284439086914,2
2017-12-05 15:37:29.055 -0800,27,BF2B89E4-20AD-4334-A98B-17808832B17C,1512517047.465873,49.27716982572304,-122.9074165639976,343.0205,-1,-1,10,65,-9999,105581.7626812917,-0.00103759765625,-0.9569854736328125,0.21099853515625,105581.7576812917,-0.187744867367316,-0.4362273844516333,-0.5290862190244071,105581.7300062917,0.2316072283903915,-1.930983741803329,1.504221084588561,0.08122032135725021,-0.5800352096557617,-0.2143437564373016,0.03310638666152954,0.04694849252700806,-0.04633283615112305,XArbitraryCorrectedZVertical,-0.4555202722549438,0.5515646934509277,0.5100288987159729,-0.477648138999939,-0.06225069239735603,-0.9977846741676331,0.02344465814530849,-5.423286437988281,-56.82061004638672,-16.8532600402832,2
2017-12-05 15:37:29.092 -0800,28,BF2B89E4-20AD-4334-A98B-17808832B17C,1512517047.465873,49.27716982572304,-122.9074165639976,343.0205,-1,-1,10,65,-9999,105581.7954142917,-0.0895538330078125,-1.05584716796875,0.0922393798828125,105581.7916062917,0.08018644884174082,-0.1513016383784538,-0.1252063881212033,105581.7652392917,0.2961016348419392,-2.017531711696229,1.51747786539911,-0.1842020750045776,-0.3641813993453979,-0.5140727758407593,0.04750719666481018,0.03585612773895264,0.187870979309082,XArbitraryCorrectedZVertical,-0.4532137513160706,0.5532699823379517,0.5187615752220154,-0.468375563621521,-0.04805652052164078,-0.9985789060592651,0.02302075549960136,-4.981101989746094,-57.17022705078125,-16.83209609985352,2
2017-12-05 15:37:29.135 -0800,29,BF2B89E4-20AD-4334-A98B-17808832B17C,1512517047.465873,49.27716982572304,-122.9074165639976,343.0205,-1,-1,10,65,-9999,105581.82933975,-0.0748443603515625,-0.965545654296875,-0.0201873779296875,105581.82433975,-0.03853567465733757,-0.04847805395493039,0.1107827076573342,105581.8004142917,0.3863328321808007,-2.113429800510498,1.526201322882432,0.1001987084746361,-0.1297576874494553,-0.06826764345169067,-0.05139175057411194,-0.05684137344360352,0.06922709941864014,XArbitraryCorrectedZVertical,-0.4543511271476746,0.5523325204849243,0.5224222540855408,-0.4642931222915649,-0.03816210106015205,-0.9990057945251465,0.0230123195797205,-4.563320159912109,-57.10884857177734,-17.0079460144043,2
2017-12-05 15:37:29.152 -0800,30,BF2B89E4-20AD-4334-A98B-17808832B17C,1512517047.465873,49.27716982572304,-122.9074165639976,343.0205,-1,-1,10,65,-9999,105581.86326475,-0.027801513671875,-1.032241821289062,0.0561981201171875,105581.85826475,0.008823585323650532,-0.04610837321697788,0.003354251392954801,105581.83564775,0.3701209682873746,-2.09871767173441,1.523461886021656,-0.0535859726369381,-0.08958235383033752,0.08344898372888565,-0.02777677774429321,0.04186397790908813,-0.05830979347229004,XArbitraryCorrectedZVertical,-0.453383207321167,0.5534945130348206,0.5219159126281738,-0.464424729347229,-0.04085725918412209,-0.9988799095153809,0.02382501773536205,-4.777492523193359,-57.18598175048828,-16.88657379150391,2
2017-12-05 15:37:29.214 -0800,31,BF2B89E4-20AD-4334-A98B-17808832B17C,1512517047.465873,49.27716982572304,-122.9074165639976,343.0205,-1,-1,10,65,-9999,105581.89599875,-0.069732666015625,-1.019195556640625,-0.0028228759765625,105581.89218975,-0.001225586733654465,-0.07034473703335299,0.0988996828734006,105581.87082275,0.3757113230201163,-2.106801517561328,1.522708012546477,0.01281867735087872,-0.02679184637963772,0.04215502366423607,0.0137963593006134,-0.0404168963432312,0.03043997287750244,XArbitraryCorrectedZVertical,-0.4527302086353302,0.5543501377105713,0.5221946239471436,-0.4637272357940674,-0.0413079522550106,-0.9988439679145813,0.02453743480145931,-4.841690063476562,-57.15904998779297,-16.86275482177734,2
2017-12-05 15:37:29.222 -0800,32,BF2B89E4-20AD-4334-A98B-17808832B17C,1512517047.465873,49.27716982572304,-122.9074165639976,343.0205,-1,-1,10,65,-9999,105581.92992375,-0.04595947265625,-1.005172729492188,0.0277099609375,105581.92492375,0.02473623915298299,0.02417511111130329,0.09733480941687005,105581.90605675,0.3431566085610991,-2.075550676121547,1.518928409121717,0.004759244155138731,-0.0488131046295166,0.110882893204689,-0.01030814647674561,-0.02292072772979736,-0.007678985595703125,XArbitraryCorrectedZVertical,-0.4513747990131378,0.5556889176368713,0.5214033722877502,-0.4643358588218689,-0.0453558973968029,-0.9986551403999329,0.02505876496434212,-4.868373870849609,-57.29315185546875,-16.97709083557129,2
2017-12-05 15:37:29.253 -0800,33,BF2B89E4-20AD-4334-A98B-17808832B17C,1512517047.465873,49.27716982572304,-122.9074165639976,343.0205,-1,-1,10,65,-9999,105581.96384875,-0.053955078125,-1.011337280273438,0.0191497802734375,105581.95884875,0.03235980408944381,-0.005458414970226407,0.09419867091719274,105581.94123175,0.31793006494385,-2.049458487088692,1.515234295092094,0.03410560637712479,0.01606097258627415,0.1094179451465607,-0.003747761249542236,-0.01074421405792236,-0.000965118408203125,XArbitraryCorrectedZVertical,-0.4506541788578033,0.556499719619751,0.520145058631897,-0.4654740691184998,-0.04926129058003426,-0.9984568357467651,0.02556225284934044,-5.079391479492188,-56.9661865234375,-17.01430702209473,2
2017-12-05 15:37:29.293 -0800,34,BF2B89E4-20AD-4334-A98B-17808832B17C,1512517047.465873,49.27716982572304,-122.9074165639976,343.0205,-1,-1,10,65,-9999,105581.99658275,-0.06121826171875,-0.9900360107421875,0.0257568359375,105581.99277375,0.02883164827730684,5.858954398174324e-05,0.02666143830500127,105581.97646575,0.3085893167791448,-2.039736990624635,1.511420814366225,0.03515411913394928,0.001798222656361759,0.0848146378993988,-0.001682519912719727,0.002769649028778076,-0.008016467094421387,XArbitraryCorrectedZVertical,-0.4500377774238586,0.5575535893440247,0.5188594460487366,-0.4662429690361023,-0.05289817973971367,-0.9982377886772156,0.02680001221597195,-5.463512420654297,-56.74542999267578,-16.8336181640625,2
2017-12-05 15:37:29.323 -0800,35,BF2B89E4-20AD-4334-A98B-17808832B17C,1512517047.465873,49.27716982572304,-122.9074165639976,343.0205,-1,-1,10,65,-9999,105582.03050775,-0.0589752197265625,-0.9905548095703125,0.0326385498046875,105582.02550775,0.02660418034156457,0.01981924483236969,0.03302639331029065,105582.01164075,0.3140968555231658,-2.044645238231295,1.509582106672462,0.03369284421205521,0.0237895417958498,0.02792259305715561,-0.006493359804153442,0.01633071899414062,0.003350496292114258,XArbitraryCorrectedZVertical,-0.4500394761562347,0.5580450296401978,0.5180619359016418,-0.4665404260158539,-0.05440448597073555,-0.9981269836425781,0.02789957076311111,-5.632991790771484,-56.82796478271484,-16.39803695678711,2
2017-12-05 15:37:29.371 -0800,36,BF2B89E4-20AD-4334-A98B-17808832B17C,1512517047.465873,49.27716982572304,-122.9074165639976,343.0205,-1,-1,10,65,-9999,105582.06443275,-0.0483551025390625,-1.01715087890625,0.0358428955078125,105582.05943275,0.01465590811092406,-0.05383473617151577,0.1073352456262266,105582.04687475,0.3129397558017183,-2.042904490963384,1.507606826249969,0.01843244582414627,-0.03668933361768723,0.09469140321016312,0.01872584223747253,-0.01276850700378418,0.003475427627563477,XArbitraryCorrectedZVertical,-0.4498863220214844,0.5585293173789978,0.5172749161720276,-0.4669821858406067,-0.05621666461229324,-0.9980041980743408,0.02870540134608746,-5.707485198974609,-57.03189086914062,-16.74165725708008,2
2017-12-05 15:37:29.393 -0800,37,BF2B89E4-20AD-4334-A98B-17808832B17C,1512517047.465873,49.27716982572304,-122.9074165639976,343.0205,-1,-1,10,65,-9999,105582.09716675,-0.054595947265625,-0.9893798828125,0.02557373046875,105582.09335875,0.009786318057714176,0.006584932111329924,0.05781269989176713,105582.08204975,0.2932252892136041,-2.024388401699273,1.503913678134951,0.01306561194360256,-0.02791748754680157,0.09682589769363403,0.01627030968666077,0.001197457313537598,-0.004248499870300293,XArbitraryCorrectedZVertical,-0.4486208856105804,0.5597997307777405,0.5164902806282043,-0.4675461649894714,-0.06004777923226357,-0.9977641701698303,0.02927287481725216,-5.821632385253906,-56.96852111816406,-16.58059883117676,2
2017-12-05 15:37:29.424 -0800,38,BF2B89E4-20AD-4334-A98B-17808832B17C,1512517047.465873,49.27716982572304,-122.9074165639976,343.0205,-1,-1,10,65,-9999,105582.13109175,-0.074951171875,-1.007232666015625,0.018218994140625,105582.12609175,0.03004844657936405,0.008824117955868549,0.07378687274228041,105582.11728375,0.2867867847166469,-2.017251987237055,1.501451005022243,0.02651546895503998,0.00947400089353323,0.06660272181034088,-0.00504729151725769,-0.008491694927215576,-0.008893847465515137,XArbitraryCorrectedZVertical,-0.448288768529892,0.5603479146957397,0.5155768394470215,-0.4682157933712006,-0.0624728724360466,-0.9975965619087219,0.02990521118044853,-5.966716766357422,-57.02497863769531,-16.5427131652832,2
2017-12-05 15:37:29.454 -0800,39,BF2B89E4-20AD-4334-A98B-17808832B17C,1512517047.465873,49.27716982572304,-122.9074165639976,343.0205,-1,-1,10,65,-9999,105582.16501775,-0.0643768310546875,-1.024856567382812,0.058746337890625,105582.16001775,0.04864796363247744,0.07039160866853839,0.04237142557537869,105582.15245875,0.2868674072743906,-2.016390393599302,1.498476282291346,0.03698338568210602,0.04793035611510277,0.08676787465810776,0.01861211657524109,-0.005772590637207031,0.0005136728286743164,XArbitraryCorrectedZVertical,-0.4480815827846527,0.5610609650611877,0.5143735408782959,-0.468883603811264,-0.06518195569515228,-0.9973860383033752,0.031133022159338,-6.180732727050781,-57.09590148925781,-16.52089881896973,2
2017-12-05 15:37:29.494 -0800,40,BF2B89E4-20AD-4334-A98B-17808832B17C,1512517047.465873,49.27716982572304,-122.9074165639976,343.0205,-1,-1,10,65,-9999,105582.19775075,-0.083770751953125,-0.9872894287109375,0.0139007568359375,105582.19394275,0.03926191868660218,0.0385199620069061,0.03718092461081426,105582.18769275,0.3028193218518892,-2.029771805540499,1.496616682715674,0.05158860981464386,0.04909693822264671,0.02452211640775204,-0.01723635196685791,0.007000327110290527,-0.004918456077575684,XArbitraryCorrectedZVertical,-0.448841780424118,0.5612080097198486,0.5130087733268738,-0.4694757759571075,-0.06642758846282959,-0.997249960899353,0.0328267477452755,-6.251667022705078,-57.05970001220703,-16.45740699768066,2
2017-12-05 15:37:29.533 -0800,41,BF2B89E4-20AD-4334-A98B-17808832B17C,1512517047.465873,49.27716982572304,-122.9074165639976,343.0205,-1,-1,10,65,-9999,105582.23167675,-0.076751708984375,-1.023590087890625,0.00860595703125,105582.22667675,0.05740763308996608,-0.08887181610481625,0.1040534322149219,105582.22286775,0.3084475825476102,-2.034824159132729,1.494087321666734,0.05790862813591957,-0.06074989214539528,0.08816667646169662,-0.02266892790794373,-0.003932476043701172,-0.04333984851837158,XArbitraryCorrectedZVertical,-0.4487560987472534,0.5619285106658936,0.5119721293449402,-0.46982741355896,-0.06851760298013687,-0.9970592856407166,0.03429137542843819,-6.192378997802734,-56.81307983398438,-16.35208320617676,2
2017-12-05 15:37:29.554 -0800,42,BF2B89E4-20AD-4334-A98B-17808832B17C,1512517047.465873,49.27716982572304,-122.9074165639976,343.0205,-1,-1,10,65,-9999,105582.26560175,-0.0774383544921875,-1.0263671875,0.06201171875,105582.26060175,0.1162365952537074,0.06171343194040619,0.1621420355956213,105582.22286775,0.3084475825476102,-2.034824159132729,1.494087321666734,0.05790862813591957,-0.06074989214539528,0.08816667646169662,-0.02266892790794373,-0.003932476043701172,-0.04333984851837158,XArbitraryCorrectedZVertical,-0.4487560987472534,0.5619285106658936,0.5119721293449402,-0.46982741355896,-0.06851760298013687,-0.9970592856407166,0.03429137542843819,-6.192378997802734,-56.81307983398438,-16.35208320617676,2
2017-12-05 15:37:29.613 -0800,43,BF2B89E4-20AD-4334-A98B-17808832B17C,1512517047.465873,49.27716982572304,-122.9074165639976,343.0205,-1,-1,10,65,-9999,105582.29833575,-0.0704498291015625,-0.9350738525390625,-0.056610107421875,105582.29452675,-0.01319862636243271,-0.2426491290326077,-0.2144489162497586,105582.29327675,0.3265817503774511,-2.054050337284507,1.485045465480916,0.01507192477583885,-0.167280301451683,-0.1331072449684143,-0.003765493631362915,0.07638847827911377,-0.08323085308074951,XArbitraryCorrectedZVertical,-0.4476608335971832,0.5652382969856262,0.5089665055274963,-0.4701672494411469,-0.07582432776689529,-0.996325671672821,0.0397891104221344,-6.724967956542969,-57.02341461181641,-16.51041793823242,2
2017-12-05 15:37:29.625 -0800,44,BF2B89E4-20AD-4334-A98B-17808832B17C,1512517047.465873,49.27716982572304,-122.9074165639976,343.0205,-1,-1,10,65,-9999,105582.33226075,-0.0642547607421875,-1.014404296875,0.0350341796875,105582.32726075,-0.02874935659962339,-0.2021264698859619,-0.06553347020801585,105582.29327675,0.3265817503774511,-2.054050337284507,1.485045465480916,0.01507192477583885,-0.167280301451683,-0.1331072449684143,-0.003765493631362915,0.07638847827911377,-0.08323085308074951,XArbitraryCorrectedZVertical,-0.4476608335971832,0.5652382969856262,0.5089665055274963,-0.4701672494411469,-0.07582432776689529,-0.996325671672821,0.0397891104221344,-6.724967956542969,-57.02341461181641,-16.51041793823242,2
2017-12-05 15:37:29.655 -0800,45,BF2B89E4-20AD-4334-A98B-17808832B17C,1512517047.465873,49.27716982572304,-122.9074165639976,343.0205,-1,-1,10,65,-9999,105582.36618575,-0.0792236328125,-1.066925048828125,0.055267333984375,105582.36118575,0.01250993290453821,-0.07578770566925694,0.07098522727551705,105582.32851075,0.3481005233857103,-2.08369982528054,1.490691283633039,-0.02052464708685875,-0.2080399543046951,-0.06739012151956558,0.001374602317810059,-0.03022998571395874,0.0005548000335693359,XArbitraryCorrectedZVertical,-0.4469435513019562,0.5655697584152222,0.5124848484992981,-0.4666153490543365,-0.06970346719026566,-0.9967933297157288,0.03925538063049316,-6.553859710693359,-57.02069091796875,-16.0484676361084,2
2017-12-05 15:37:29.695 -0800,46,BF2B89E4-20AD-4334-A98B-17808832B17C,1512517047.465873,49.27716982572304,-122.9074165639976,343.0205,-1,-1,10,65,-9999,105582.39891975,-0.1169281005859375,-0.9430084228515625,0.0243682861328125,105582.39511175,0.1710500431258273,-0.04357410912365848,0.1376388230380202,105582.36368575,0.3459668430063915,-2.087351666484169,1.492895872254854,-0.002644069492816925,-0.1059060618281364,0.0371764600276947,0.002567678689956665,-0.03593063354492188,-0.02151620388031006,XArbitraryCorrectedZVertical,-0.445692390203476,0.5661888122558594,0.5145516395568848,-0.4647830426692963,-0.06764641404151917,-0.9969673156738281,0.03842295706272125,-6.397190093994141,-57.08559417724609,-16.34159469604492,2
2017-12-05 15:37:29.725 -0800,47,BF2B89E4-20AD-4334-A98B-17808832B17C,1512517047.465873,49.27716982572304,-122.9074165639976,343.0205,-1,-1,10,65,-9999,105582.43284475,-0.065673828125,-1.050949096679688,0.081298828125,105582.42784475,-0.02815254219933664,-0.1330509954281407,0.1689490753418638,105582.39891975,0.3409253274190265,-2.08002402434572,1.483716578239077,0.1834603697061539,-0.01544700842350721,0.1699317991733551,-0.04101356863975525,0.05320250988006592,-0.01801824569702148,XArbitraryCorrectedZVertical,-0.4449206590652466,0.5685409903526306,0.5109533071517944,-0.466617077589035,-0.07591450959444046,-0.9962109327316284,0.0423865020275116,-6.894496917724609,-57.16017913818359,-16.08253860473633,2
2017-12-05 15:37:29.777 -0800,48,BF2B89E4-20AD-4334-A98B-17808832B17C,1512517047.465873,49.27716982572304,-122.9074165639976,343.0205,-1,-1,10,65,-9999,105582.46677075,-0.084930419921875,-0.9951019287109375,-0.0101318359375,105582.46177075,0.04155330248850635,-0.0780684368268008,0.3795758227951407,105582.43409475,0.3414457683387713,-2.08760040010988,1.48196144668714,-0.02208868414163589,-0.1115285232663155,0.1991542279720306,0.01442566514015198,-0.05545687675476074,0.02792394161224365,XArbitraryCorrectedZVertical,-0.4428965151309967,0.5707487463951111,0.5119134187698364,-0.4647912979125977,-0.07710876315832138,-0.9960567951202393,0.04382291063666344,-7.124046325683594,-57.00010681152344,-16.13042259216309,2
2017-12-05 15:37:29.796 -0800,49,BF2B89E4-20AD-4334-A98B-17808832B17C,1512517047.465873,49.27716982572304,-122.9074165639976,343.0205,-1,-1,10,65,-9999,105582.49950475,-0.1030731201171875,-1.019515991210938,0.081634521484375,105582.49569575,-0.04612168902242828,-0.04213760003166974,0.5642258306596757,105582.46932875,0.2900485453006814,-2.037010815564648,1.469966232977424,0.04142705723643303,-0.09060508757829666,0.4024402499198914,0.007436960935592651,-0.006314992904663086,-0.05433082580566406,XArbitraryCorrectedZVertical,-0.4393851757049561,0.5740722417831421,0.5086482763290405,-0.4676070809364319,-0.08989546447992325,-0.9949209690093994,0.04523654282093048,-7.955242156982422,-56.80193328857422,-15.6888256072998,2
2017-12-05 15:37:29.826 -0800,50,BF2B89E4-20AD-4334-A98B-17808832B17C,1512517047.465873,49.27716982572304,-122.9074165639976,343.0205,-1,-1,10,65,-9999,105582.53342975,-0.1291351318359375,-1.040603637695312,0.0904541015625,105582.52842975,0.3116569591987409,-0.00495774068529151,0.4841296629788885,105582.50450475,0.2132133734592239,-1.963555570471264,1.453927628924762,-0.01993220672011375,-0.01836111769080162,0.5803906321525574,0.004632294178009033,-0.0263373851776123,0.03701388835906982,XArbitraryCorrectedZVertical,-0.4332286417484283,0.5784662961959839,0.5053119659423828,-0.4715370833873749,-0.1077053844928741,-0.9931786060333252,0.04462062194943428,-8.919534683227539,-56.58627319335938,-15.62273406982422,2
2017-12-05 15:37:29.856 -0800,51,BF2B89E4-20AD-4334-A98B-17808832B17C,1512517047.465873,49.27716982572304,-122.9074165639976,343.0205,-1,-1,10,65,-9999,105582.56735475,-0.1044769287109375,-1.048233032226562,0.1385650634765625,105582.56235475,0.377534243503486,0.1270327839967797,0.4264876717129955,105582.53973775,0.2127918436606043,-1.963158151208222,1.434463229698884,0.372993677854538,0.001341041876003146,0.4862613677978516,0.0001111328601837158,-0.05394142866134644,0.04586136341094971,XArbitraryCorrectedZVertical,-0.4297396540641785,0.5842133164405823,0.4989059567451477,-0.4744570553302765,-0.1255689114332199,-0.9907210469245911,0.05196273699402809,-10.01231956481934,-56.55855560302734,-15.21775245666504,2
2017-12-05 15:37:29.896 -0800,52,BF2B89E4-20AD-4334-A98B-17808832B17C,1512517047.465873,49.27716982572304,-122.9074165639976,343.0205,-1,-1,10,65,-9999,105582.60008875,-0.05230712890625,-1.019073486328125,0.0687408447265625,105582.59627975,0.5204221570500523,0.2306308156652981,0.4264759538041991,105582.57491375,0.2565089318134081,-2.003196675405003,1.414809648271331,0.3888210356235504,0.1584563404321671,0.4501974582672119,0.04451823234558105,-0.06638622283935547,0.06477093696594238,XArbitraryCorrectedZVertical,-0.4292570650577545,0.5901581645011902,0.4905171990394592,-0.4762801826000214,-0.1410453319549561,-0.9878587126731873,0.06509657204151154,-10.67805290222168,-56.64117431640625,-14.73050880432129,2
2017-12-05 15:37:29.935 -0800,53,BF2B89E4-20AD-4334-A98B-17808832B17C,1512517047.465873,49.27716982572304,-122.9074165639976,343.0205,-1,-1,10,65,-9999,105582.63401375,-0.1368255615234375,-0.94976806640625,0.08447265625,105582.62901375,-0.1344070770552091,-0.003702326547428157,0.1400053079826646,105582.61014675,0.3089968614374131,-2.047300300368704,1.393454274258183,0.5680395364761353,0.1929836869239807,0.3881106674671173,0.09170505404472351,-0.02017003297805786,-0.03386926651000977,XArbitraryCorrectedZVertical,-0.4306665062904358,0.5958040356636047,0.4801047742366791,-0.4785830080509186,-0.1567532867193222,-0.9843160510063171,0.08091218024492264,-11.54744911193848,-56.39043426513672,-13.78561782836914,2
2017-12-05 15:37:29.957 -0800,54,BF2B89E4-20AD-4334-A98B-17808832B17C,1512517047.465873,49.27716982572304,-122.9074165639976,343.0205,-1,-1,10,65,-9999,105582.66793975,-0.1482696533203125,-0.980499267578125,0.0873565673828125,105582.66293975,0.1601396047719907,-0.1038110845557247,-0.2501171653614078,105582.64532275,0.3093034822808107,-2.046866582493724,1.386473641687418,-0.3372862935066223,-0.1660461723804474,0.02613683976233006,0.02582070231437683,0.02985930442810059,-0.05971384048461914,XArbitraryCorrectedZVertical,-0.4297773838043213,0.5977346301078796,0.4774974584579468,-0.4795821011066437,-0.1628904491662979,-0.9830605983734131,0.08399057388305664,-11.77248191833496,-56.30583953857422,-13.83069038391113,2
2017-12-05 15:37:30.012 -0800,55,BF2B89E4-20AD-4334-A98B-17808832B17C,1512517047.465873,49.27716982572304,-122.9074165639976,343.0205,-1,-1,10,65,-9999,105582.70067275,-0.230194091796875,-1.000106811523438,0.08441162109375,105582.69686475,0.009428389207207528,0.1658813800822015,-0.02749207824899698,105582.68055575,0.3396763383912599,-2.079926534124066,1.392106081465587,0.2790738046169281,0.04321115091443062,-0.241306483745575,-0.02309539914131165,-0.0282975435256958,0.05123436450958252,XArbitraryCorrectedZVertical,-0.4317905604839325,0.5973870754241943,0.479341447353363,-0.4763565957546234,-0.1551883220672607,-0.9840773344039917,0.08662880957126617,-11.52267265319824,-56.67681121826172,-13.60450172424316,2
2017-12-05 15:37:30.027 -0800,56,BF2B89E4-20AD-4334-A98B-17808832B17C,1512517047.465873,49.27716982572304,-122.9074165639976,343.0205,-1,-1,10,65,-9999,105582.73459875,-0.2590789794921875,-0.9079742431640625,0.009521484375,105582.72959875,0.1760977986559635,0.02902419482411957,-0.05454686544700296,105582.71573175,0.3610921801036898,-2.095773612368211,1.393132675521639,0.06171844527125359,0.1029560416936874,-0.008967820554971695,-0.1079885959625244,0.02933377027511597,-0.06366825103759766,XArbitraryCorrectedZVertical,-0.4345336258411407,0.5962095260620117,0.4780353903770447,-0.4766498506069183,-0.1529214531183243,-0.984259307384491,0.08857054263353348,-11.22405433654785,-56.70926666259766,-13.51021194458008,2
2017-12-05 15:37:30.057 -0800,57,BF2B89E4-20AD-4334-A98B-17808832B17C,1512517047.465873,49.27716982572304,-122.9074165639976,343.0205,-1,-1,10,65,-9999,105582.76852375,-0.2218475341796875,-0.9642333984375,0.0455169677734375,105582.76352375,0.2383190954162478,0.07411524050468718,0.1325713601158175,105582.75096475,0.3904752455954848,-2.123210110770609,1.39149857031838,0.1932399570941925,-0.004350728821009398,-0.004885093308985233,-0.1015852689743042,0.05983585119247437,-0.07645535469055176,XArbitraryCorrectedZVertical,-0.4365321695804596,0.5968479514122009,0.4764311015605927,-0.4756296873092651,-0.151802197098732,-0.9839691519737244,0.09357562661170959,-11.25861549377441,-56.70590972900391,-13.08309173583984,2
2017-12-05 15:37:30.097 -0800,58,BF2B89E4-20AD-4334-A98B-17808832B17C,1512517047.465873,49.27716982572304,-122.9074165639976,343.0205,-1,-1,10,65,-9999,105582.8012577917,-0.2270355224609375,-1.058517456054688,0.103790283203125,105582.79744875,0.5485467360579431,0.3877088504481337,0.5243468575485021,105582.78614075,0.4147661878494923,-2.143288203680432,1.380823841915501,0.3591703772544861,0.232020229101181,0.3482154905796051,-0.05252906680107117,-0.0299382209777832,-0.02881824970245361,XArbitraryCorrectedZVertical,-0.4376952052116394,0.5996395349502563,0.4711861610412598,-0.4762740433216095,-0.1587136387825012,-0.9820094108581543,0.1022893264889717,-11.71872901916504,-56.42325592041016,-12.79474544525146,2
2017-12-05 15:37:30.128 -0800,59,BF2B89E4-20AD-4334-A98B-17808832B17C,1512517047.465873,49.27716982572304,-122.9074165639976,343.0205,-1,-1,10,65,-9999,105582.8351827917,-0.2453765869140625,-0.9894561767578125,0.16064453125,105582.8301827917,0.7816534925886879,0.6002035390899921,0.6446104186865184,105582.8213747917,0.4395159045436695,-2.152075888380499,1.352687645682557,0.7401175498962402,0.561216413974762,0.6431204080581665,-0.05909305810928345,-0.03068006038665771,0.02674436569213867,XArbitraryCorrectedZVertical,-0.4396824836730957,0.605048656463623,0.4569176435470581,-0.4814765751361847,-0.1808361411094666,-0.9763084650039673,0.1188091263175011,-12.53559494018555,-56.4796142578125,-11.56714344024658,2
2017-12-05 15:37:30.175 -0800,60,BF2B89E4-20AD-4334-A98B-17808832B17C,1512517047.465873,49.27716982572304,-122.9074165639976,343.0205,-1,-1,10,65,-9999,105582.8691077917,-0.2604217529296875,-0.9761199951171875,0.143280029296875,105582.8641077917,0.7894943714700992,0.1422836422952274,0.540241668198531,105582.8565497917,0.4792720763201015,-2.171375779077869,1.318082309501398,0.8039354681968689,0.3955324590206146,0.6423922777175903,-0.03236159682273865,-0.02936697006225586,0.006213903427124023,XArbitraryCorrectedZVertical,-0.4433800876140594,0.6116048693656921,0.4387326538562775,-0.4866877794265747,-0.2062705904245377,-0.9682374000549316,0.1412928402423859,-13.50369262695312,-56.45477294921875,-10.58627700805664,2
2017-12-05 15:37:30.198 -0800,61,BF2B89E4-20AD-4334-A98B-17808832B17C,1512517047.465873,49.27716982572304,-122.9074165639976,343.0205,-1,-1,10,65,-9999,105582.9018417917,-0.1445465087890625,-0.9620819091796875,0.225677490234375,105582.8980337917,0.6827261128399504,0.03329270941929857,0.5240238161082755,105582.8917837917,0.5227277677989287,-2.210464805291608,1.28794707816213,0.7432808876037598,-0.05702165514230728,0.4482848346233368,0.02944996953010559,0.002592027187347412,0.02844381332397461,XArbitraryCorrectedZVertical,-0.4450241923332214,0.6206854581832886,0.4254929721355438,-0.4854449927806854,-0.2239079624414444,-0.9602641463279724,0.1665939390659332,-14.77691459655762,-56.42221069335938,-8.988875389099121,2
2017-12-05 15:37:30.228 -0800,62,BF2B89E4-20AD-4334-A98B-17808832B17C,1512517047.465873,49.27716982572304,-122.9074165639976,343.0205,-1,-1,10,65,-9999,105582.9357667917,-0.119110107421875,-0.9428558349609375,0.1968536376953125,105582.9307667917,0.8404257294212105,0.05560147723867433,0.6260942585755245,105582.9269587917,0.5467249811974014,-2.229804590776537,1.256335317915982,0.7716295123100281,0.1428337097167969,0.658541738986969,0.1225820183753967,0.01143383979797363,0.009185075759887695,XArbitraryCorrectedZVertical,-0.4452463984489441,0.6296443939208984,0.4118844866752625,-0.4854409992694855,-0.2445302456617355,-0.9509632587432861,0.1893928349018097,-15.63695907592773,-56.14038848876953,-7.820597648620605,2
2017-12-05 15:37:30.259 -0800,63,BF2B89E4-20AD-4334-A98B-17808832B17C,1512517047.465873,49.27716982572304,-122.9074165639976,343.0205,-1,-1,10,65,-9999,105582.9696927917,-0.141357421875,-0.8717193603515625,0.3420562744140625,105582.9646927917,1.163538009732818,-0.06746639252719536,0.1694654622772302,105582.9269587917,0.5467249811974014,-2.229804590776537,1.256335317915982,0.7716295123100281,0.1428337097167969,0.658541738986969,0.1225820183753967,0.01143383979797363,0.009185075759887695,XArbitraryCorrectedZVertical,-0.4452463984489441,0.6296443939208984,0.4118844866752625,-0.4854409992694855,-0.2445302456617355,-0.9509632587432861,0.1893928349018097,-15.63695907592773,-56.14038848876953,-7.820597648620605,2
2017-12-05 15:37:30.299 -0800,64,BF2B89E4-20AD-4334-A98B-17808832B17C,1512517047.465873,49.27716982572304,-122.9074165639976,343.0205,-1,-1,10,65,-9999,105583.0024257917,-0.1761627197265625,-0.869354248046875,0.331298828125,105582.9986177917,1.289444276588494,0.09327561928337127,0.02245470904711211,105582.9973677917,0.6741796531036213,-2.349020936706961,1.189372317623618,1.298947691917419,0.09063436836004257,0.07203450798988342,0.1293189525604248,0.06793653964996338,0.06090450286865234,XArbitraryCorrectedZVertical,-0.4568128287792206,0.6495996713638306,0.3819974362850189,-0.4726713597774506,-0.2650916576385498,-0.9281355142593384,0.2613153755664825,-16.62957572937012,-55.73384094238281,-3.785991668701172,2
2017-12-05 15:37:30.334 -0800,65,BF2B89E4-20AD-4334-A98B-17808832B17C,1512517047.465873,49.27716982572304,-122.9074165639976,343.0205,-1,-1,10,65,-9999,105583.0363517917,-0.155029296875,-0.8719482421875,0.1681976318359375,105583.0313517917,-0.6710454882988629,0.5670647603817002,0.3493502760032864,105582.9973677917,0.6741796531036213,-2.349020936706961,1.189372317623618,1.298947691917419,0.09063436836004257,0.07203450798988342,0.1293189525604248,0.06793653964996338,0.06090450286865234,XArbitraryCorrectedZVertical,-0.4568128287792206,0.6495996713638306,0.3819974362850189,-0.4726713597774506,-0.2650916576385498,-0.9281355142593384,0.2613153755664825,-16.62957572937012,-55.73384094238281,-3.785991668701172,2
2017-12-05 15:37:30.359 -0800,66,BF2B89E4-20AD-4334-A98B-17808832B17C,1512517047.465873,49.27716982572304,-122.9074165639976,343.0205,-1,-1,10,65,-9999,105583.0702767917,-0.28741455078125,-0.892791748046875,0.253570556640625,105583.0652767917,-0.1428639450967557,-0.1935947670177841,-0.1261257113294987,105583.0326017917,0.7178601669580539,-2.375084225451297,1.168399428616866,-0.4399819076061249,0.7747970223426819,0.3134416937828064,0.1416764557361603,0.04831403493881226,0.07543206214904785,XArbitraryCorrectedZVertical,-0.4648553729057312,0.6518878936767578,0.3693536221981049,-0.4717280566692352,-0.2716355919837952,-0.9201249480247498,0.2820966839790344,-16.8904857635498,-55.56642150878906,-2.867830276489258,2
2017-12-05 15:37:30.416 -0800,67,BF2B89E4-20AD-4334-A98B-17808832B17C,1512517047.465873,49.27716982572304,-122.9074165639976,343.0205,-1,-1,10,65,-9999,105583.1030107917,-0.2569732666015625,-0.7779693603515625,0.3133544921875,105583.0992017917,-0.2686583591866485,-0.0224243490106852,-0.4209821187914747,105583.0677767917,0.6920050295890744,-2.354093956155134,1.175748323922164,-0.1101834252476692,-0.2049341797828674,-0.1366528123617172,-0.04891183972358704,0.1218001246452332,-0.03765249252319336,XArbitraryCorrectedZVertical,-0.460772693157196,0.6507424712181091,0.3735344409942627,-0.4740175008773804,-0.2726976871490479,-0.9229781031608582,0.2715544700622559,-17.08537483215332,-55.52081298828125,-2.978919982910156,2
2017-12-05 15:37:30.429 -0800,68,BF2B89E4-20AD-4334-A98B-17808832B17C,1512517047.465873,49.27716982572304,-122.9074165639976,343.0205,-1,-1,10,65,-9999,105583.1369357917,-0.1654815673828125,-0.836456298828125,0.2108917236328125,105583.1319357917,-0.1992888717444825,0.4468320919123288,-0.6321755869247204,105583.1030107917,0.6897634413206971,-2.356717627783319,1.18641120230608,-0.2581021189689636,-0.03932962566614151,-0.3938633799552917,0.008039593696594238,0.1490597724914551,0.04806423187255859,XArbitraryCorrectedZVertical,-0.4602185487747192,0.6487249135971069,0.3789036571979523,-0.4730586111545563,-0.2650128304958344,-0.9270291924476624,0.2652902603149414,-16.49158668518066,-55.68572998046875,-3.341262817382812,2
2017-12-05 15:37:30.460 -0800,69,BF2B89E4-20AD-4334-A98B-17808832B17C,1512517047.465873,49.27716982572304,-122.9074165639976,343.0205,-1,-1,10,65,-9999,105583.1708607917,-0.21063232421875,-0.8823089599609375,0.09429931640625,105583.1658607917,-0.0465291526692104,0.06618647730730327,-0.7964915609181734,105583.1381857917,0.7097100684376446,-2.365210890167306,1.206962838544865,-0.1868427246809006,0.455200731754303,-0.6212436556816101,0.07080236077308655,0.1065213084220886,-0.02648115158081055,XArbitraryCorrectedZVertical,-0.4662244915962219,0.6399813890457153,0.3842758536338806,-0.4747506082057953,-0.2493454813957214,-0.9345394968986511,0.2538829147815704,-15.758544921875,-56.15972137451172,-4.187403678894043,2
2017-12-05 15:37:30.500 -0800,70,BF2B89E4-20AD-4334-A98B-17808832B17C,1512517047.465873,49.27716982572304,-122.9074165639976,343.0205,-1,-1,10,65,-9999,105583.2035947917,-0.266754150390625,-1.021408081054688,0.399078369140625,105583.1997867917,-0.1539781152739834,-0.3997751007150647,-0.7727201850281261,105583.1734197917,0.7532740066351106,-2.394887864159283,1.226287649100332,-0.0442623570561409,-0.008931255899369717,-0.8055520057678223,-0.004815876483917236,0.04846501350402832,-0.1463658809661865,XArbitraryCorrectedZVertical,-0.475251317024231,0.6309277415275574,0.3885324001312256,-0.4744539856910706,-0.2293912917375565,-0.9412415027618408,0.2478672564029694,-14.10407066345215,-56.68560791015625,-4.1546630859375,2
2017-12-05 15:37:30.530 -0800,71,BF2B89E4-20AD-4334-A98B-17808832B17C,1512517047.465873,49.27716982572304,-122.9074165639976,343.0205,-1,-1,10,65,-9999,105583.2375197917,-0.246185302734375,-1.05242919921875,0.429962158203125,105583.2325197917,-0.2783128507704037,0.213521070925975,-0.09491639283096909,105583.2085947917,0.8109484129147498,-2.461348553913072,1.24818129593018,-0.1478610783815384,-0.3530158400535583,-0.6943756341934204,-0.06734174489974976,-0.0729985237121582,0.1526057720184326,XArbitraryCorrectedZVertical,-0.4808976650238037,0.6260780692100525,0.3994323313236237,-0.4660637378692627,-0.1994124203920364,-0.9484095573425293,0.2464726269245148,-12.8887767791748,-56.85765838623047,-4.227792739868164,2
2017-12-05 15:37:30.576 -0800,72,BF2B89E4-20AD-4334-A98B-17808832B17C,1512517047.465873,49.27716982572304,-122.9074165639976,343.0205,-1,-1,10,65,-9999,105583.2714457917,-0.2273406982421875,-0.8632049560546875,0.1739654541015625,105583.2664457917,-0.260676066451354,0.7418698606445392,-0.1356563659225652,105583.2438287917,0.81712389447158,-2.46555440140135,1.260049397179189,-0.3142596483230591,0.3227983713150024,-0.05627973005175591,-0.03851059079170227,-0.06104767322540283,0.1493210792541504,XArbitraryCorrectedZVertical,-0.4821478128433228,0.6219238638877869,0.4036247134208679,-0.466721773147583,-0.1913172751665115,-0.9521054625511169,0.2385116070508957,-12.28758811950684,-57.10078430175781,-4.939727783203125,2
2017-12-05 15:37:30.600 -0800,73,BF2B89E4-20AD-4334-A98B-17808832B17C,1512517047.465873,49.27716982572304,-122.9074165639976,343.0205,-1,-1,10,65,-9999,105583.3041787917,-0.2575836181640625,-0.863616943359375,0.0665740966796875,105583.3003707917,-0.09491825704373215,0.2437985493590858,-0.4185605064122656,105583.2790037917,0.8042593986500916,-2.431373412691751,1.27005668131296,-0.1836313158273697,0.7679905891418457,-0.1594029366970062,-0.03725865483283997,0.1059049963951111,-0.07142996788024902,XArbitraryCorrectedZVertical,-0.485222339630127,0.6138877272605896,0.402272641658783,-0.4752637445926666,-0.1931338161230087,-0.9551176428794861,0.2245977222919464,-12.20990753173828,-57.14177703857422,-5.494180679321289,2
2017-12-05 15:37:30.656 -0800,74,BF2B89E4-20AD-4334-A98B-17808832B17C,1512517047.465873,49.27716982572304,-122.9074165639976,343.0205,-1,-1,10,65,-9999,105583.3381047917,-0.192291259765625,-1.077911376953125,0.181396484375,105583.3331047917,-0.1736554136202519,-0.8930191662086404,-0.6613595714142447,105583.3142377917,0.8270168856898575,-2.439481158804795,1.280444582922369,-0.09665366262197495,-0.05756105855107307,-0.4642347097396851,-0.06981062889099121,0.05570793151855469,-0.1400785446166992,XArbitraryCorrectedZVertical,-0.4907108843326569,0.6070318818092346,0.4028463661670685,-0.4779413640499115,-0.18488909304142,-0.9581432342529297,0.2185697555541992,-11.44572257995605,-57.45957946777344,-5.790286064147949,2
2017-12-05 15:37:30.661 -0800,75,BF2B89E4-20AD-4334-A98B-17808832B17C,1512517047.465873,49.27716982572304,-122.9074165639976,343.0205,-1,-1,10,65,-9999,105583.3720297917,-0.059967041015625,-1.064987182617188,0.1998443603515625,105583.3670297917,-0.06141036420835517,-0.8918282005691569,-0.2910049438935034,105583.3494127917,0.8751292150455025,-2.511570398477489,1.297624046575818,-0.1564925760030746,-1.040655255317688,-0.537285327911377,-0.02390226721763611,-0.130357027053833,-0.01920914649963379,XArbitraryCorrectedZVertical,-0.4905913472175598,0.6068878173828125,0.4157750308513641,-0.4670509397983551,-0.1589437872171402,-0.9629198908805847,0.2179853916168213,-10.33877754211426,-57.73766326904297,-6.170171737670898,2
2017-12-05 15:37:30.701 -0800,76,BF2B89E4-20AD-4334-A98B-17808832B17C,1512517047.465873,49.27716982572304,-122.9074165639976,343.0205,-1,-1,10,65,-9999,105583.4047637917,-0.129180908203125,-0.9576568603515625,0.218505859375,105583.4009547917,0.07671981205078468,-0.4324776536368017,-0.1219464126308373,105583.3846467917,0.9036776030174144,-2.570367172005444,1.305803136236103,0.02224212698638439,-0.6351228356361389,-0.1656117886304855,0.08321672677993774,-0.04079556465148926,0.001470565795898438,XArbitraryCorrectedZVertical,-0.4867508113384247,0.6109268665313721,0.4266760945320129,-0.4558374583721161,-0.1415968239307404,-0.965094268321991,0.2203159779310226,-9.749553680419922,-57.69431304931641,-5.838253974914551,2
2017-12-05 15:37:30.736 -0800,77,BF2B89E4-20AD-4334-A98B-17808832B17C,1512517047.465873,49.27716982572304,-122.9074165639976,343.0205,-1,-1,10,65,-9999,105583.4386887917,-0.202362060546875,-0.9711761474609375,0.2845916748046875,105583.4336887917,-0.03867469166623971,-0.6293965783272227,-0.05523981996264157,105583.4198217917,0.9189311113010218,-2.601258776233444,1.305847457022274,0.06558608263731003,-0.5307244658470154,-0.06975215673446655,-0.005282104015350342,-0.01376068592071533,-0.03060781955718994,XArbitraryCorrectedZVertical,-0.484799712896347,0.6142008900642395,0.4307432770729065,-0.4496496915817261,-0.1347020417451859,-0.9651058912277222,0.2245469838380814,-9.475063323974609,-58.07846069335938,-5.75789737701416,2
2017-12-05 15:37:30.761 -0800,78,BF2B89E4-20AD-4334-A98B-17808832B17C,1512517047.465873,49.27716982572304,-122.9074165639976,343.0205,-1,-1,10,65,-9999,105583.4726137917,-0.080718994140625,-0.973297119140625,0.286407470703125,105583.4676137917,-0.04643008307665945,-0.08356626658116038,-0.04125849055583458,105583.4550557917,0.9228451597365958,-2.624687614434328,1.308137764556502,-0.08711670339107513,-0.4267725944519043,-0.05978506058454514,0.01893734931945801,-0.01867187023162842,0.1003150939941406,XArbitraryCorrectedZVertical,-0.4808403849601746,0.6177800893783569,0.4363921880722046,-0.4435092210769653,-0.1283123642206192,-0.9657030701637268,0.2257194221019745,-9.543294906616211,-57.75287628173828,-5.470169067382812,2
2017-12-05 15:37:30.817 -0800,79,BF2B89E4-20AD-4334-A98B-17808832B17C,1512517047.465873,49.27716982572304,-122.9074165639976,343.0205,-1,-1,10,65,-9999,105583.5103477917,-0.1566009521484375,-0.9528656005859375,0.218658447265625,105583.5027887917,-0.09967199958952358,-0.02003709140953817,0.03592577678905991,105583.4902307917,0.9236727952902107,-2.628611806129525,1.310381889138058,-0.05491622164845467,0.04994650930166245,-0.01034941058605909,0.005359858274459839,0.04149395227432251,0.04527449607849121,XArbitraryCorrectedZVertical,-0.4801468551158905,0.6177584528923035,0.4379996061325073,-0.4427056312561035,-0.1263620257377625,-0.96628338098526,0.2243330180644989,-9.67424201965332,-57.6517333984375,-5.393461227416992,2
2017-12-05 15:37:30.832 -0800,80,BF2B89E4-20AD-4334-A98B-17808832B17C,1512517047.465873,49.27716982572304,-122.9074165639976,343.0205,-1,-1,10,65,-9999,105583.5405227917,-0.075439453125,-0.939605712890625,0.1730804443359375,105583.5329647917,-0.0517183220532298,-0.01553847969617632,0.06462293543131775,105583.5254647917,0.91023425009865,-2.616914048361399,1.312151427324378,-0.1223803907632828,-0.1413732767105103,0.0807633101940155,0.02266713976860046,-0.005552589893341064,-0.01686084270477295,XArbitraryCorrectedZVertical,-0.4784905016422272,0.6178401112556458,0.4388428032398224,-0.4435491263866425,-0.1281206607818604,-0.9667374491691589,0.2213591337203979,-9.613798141479492,-57.70999908447266,-5.441434860229492,2
2017-12-05 15:37:30.862 -0800,81,BF2B89E4-20AD-4334-A98B-17808832B17C,1512517047.465873,49.27716982572304,-122.9074165639976,343.0205,-1,-1,10,65,-9999,105583.5706977917,-0.1945648193359375,-0.9272308349609375,0.2459869384765625,105583.5631397917,0.06189213004955051,0.1560947957083784,0.03768559363738427,105583.5606397917,0.9027257646990577,-2.607458109765743,1.30985567938947,0.09772445261478424,0.1952528357505798,0.0912640318274498,0.02516686916351318,0.08524256944656372,-0.04985177516937256,XArbitraryCorrectedZVertical,-0.4783232510089874,0.618247926235199,0.4373783767223358,-0.4446064233779907,-0.131337508559227,-0.9661477208137512,0.2220472544431686,-9.835382461547852,-57.80123901367188,-5.744528770446777,2
2017-12-05 15:37:30.895 -0800,82,BF2B89E4-20AD-4334-A98B-17808832B17C,1512517047.465873,49.27716982572304,-122.9074165639976,343.0205,-1,-1,10,65,-9999,105583.6008737917,-0.2122344970703125,-1.019485473632812,0.3179779052734375,105583.5933147917,-0.1543072819847172,-0.2024322007791031,-0.08208714691173037,105583.5606397917,0.9027257646990577,-2.607458109765743,1.30985567938947,0.09772445261478424,0.1952528357505798,0.0912640318274498,0.02516686916351318,0.08524256944656372,-0.04985177516937256,XArbitraryCorrectedZVertical,-0.4783232510089874,0.618247926235199,0.4373783767223358,-0.4446064233779907,-0.131337508559227,-0.9661477208137512,0.2220472544431686,-9.835382461547852,-57.80123901367188,-5.744528770446777,2
2017-12-05 15:37:30.922 -0800,83,BF2B89E4-20AD-4334-A98B-17808832B17C,1512517047.465873,49.27716982572304,-122.9074165639976,343.0205,-1,-1,10,65,-9999,105583.6310487917,-0.0185394287109375,-1.038406372070312,0.1895751953125,105583.6234907917,-0.148823300668026,0.05449573275407343,0.09268066909584757,105583.5958737917,0.9036799566788948,-2.6077038929405,1.309973379512479,-0.1248798966407776,-0.1896272152662277,-0.07232506573200226,-0.09133970737457275,-0.04584580659866333,0.05681180953979492,XArbitraryCorrectedZVertical,-0.4785604178905487,0.6180377602577209,0.4372696876525879,-0.4447502493858337,-0.1312249600887299,-0.9661780595779419,0.2219814956188202,-9.802492141723633,-57.87990570068359,-5.871955871582031,2
2017-12-05 15:37:30.976 -0800,84,BF2B89E4-20AD-4334-A98B-17808832B17C,1512517047.465873,49.27716982572304,-122.9074165639976,343.0205,-1,-1,10,65,-9999,105583.6612237917,-0.2038421630859375,-0.9913330078125,0.2052154541015625,105583.6536657917,-0.02065281425356449,0.1613300377792561,0.1356039016490907,105583.6310487917,0.8890257543904531,-2.595582299825796,1.31549596081628,-0.126921147108078,0.08594879508018494,0.1109818518161774,0.1238245368003845,-0.06253337860107422,-0.004599452018737793,XArbitraryCorrectedZVertical,-0.4765150249004364,0.6171217560768127,0.4397327601909637,-0.4457888603210449,-0.1311334669589996,-0.9675874710083008,0.2158116549253464,-9.748783111572266,-57.67018127441406,-5.952774047851562,2
2017-12-05 15:37:30.983 -0800,85,BF2B89E4-20AD-4334-A98B-17808832B17C,1512517047.465873,49.27716982572304,-122.9074165639976,343.0205,-1,-1,10,65,-9999,105583.6913987917,-0.1990203857421875,-0.955322265625,0.23974609375,105583.6838407917,0.03164154954344944,0.3800815570861467,0.02087412294015008,105583.6662827917,0.8682107100341885,-2.569696644803482,1.313616003004401,-9.866338223218918e-05,0.2037873864173889,0.1056319624185562,-0.07303419709205627,-0.02913528680801392,0.001595497131347656,XArbitraryCorrectedZVertical,-0.4758194983005524,0.6168733239173889,0.4375117719173431,-0.449048787355423,-0.1376591771841049,-0.9671109914779663,0.2138737887144089,-10.02015113830566,-57.62036895751953,-6.150985717773438,2
2017-12-05 15:37:31.013 -0800,86,BF2B89E4-20AD-4334-A98B-17808832B17C,1512517047.465873,49.27716982572304,-122.9074165639976,343.0205,-1,-1,10,65,-9999,105583.7215747917,-0.1801605224609375,-1.028778076171875,0.257904052734375,105583.7140157917,-0.02331570902753472,0.4173407786330093,-0.08620492658921089,105583.7014577917,0.8672293044890297,-2.5570067508457,1.311715539786074,0.009828109294176102,0.3872934281826019,-0.0216234102845192,-0.07391053438186646,0.00709223747253418,0.01845991611480713,XArbitraryCorrectedZVertical,-0.478320986032486,0.6148412823677063,0.4339819550514221,-0.452589213848114,-0.1413757055997849,-0.9666258692741394,0.2136415392160416,-10.23395919799805,-57.52442169189453,-6.181026458740234,2
2017-12-05 15:37:31.055 -0800,87,BF2B89E4-20AD-4334-A98B-17808832B17C,1512517047.465873,49.27716982572304,-122.9074165639976,343.0205,-1,-1,10,65,-9999,105583.7517497917,-0.1683349609375,-1.037078857421875,0.1717681884765625,105583.7441917917,-0.009271795335110867,0.5316106294216932,-0.108157363454734,105583.7366917917,0.8756185355079863,-2.548982463673977,1.314011377519828,-0.01088940352201462,0.5882614850997925,-0.081266850233078,-0.001570940017700195,-0.1108067035675049,0.04564189910888672,XArbitraryCorrectedZVertical,-0.4825818538665771,0.6102825403213501,0.4310209155082703,-0.4570441544055939,-0.1418463885784149,-0.9672114849090576,0.2106600552797318,-10.01504707336426,-57.39680480957031,-6.454530715942383,2
2017-12-05 15:37:31.198 -0800,88,BF2B89E4-20AD-4334-A98B-17808832B17C,1512517047.465873,49.27716982572304,-122.9074165639976,343.0205,-1,-1,10,65,-9999,105583.7819247917,-0.0825347900390625,-1.052337646484375,0.1221160888671875,105583.7441917917,-0.009271795335110867,0.5316106294216932,-0.108157363454734,105583.7366917917,0.8756185355079863,-2.548982463673977,1.314011377519828,-0.01088940352201462,0.5882614850997925,-0.081266850233078,-0.001570940017700195,-0.1108067035675049,0.04564189910888672,XArbitraryCorrectedZVertical,-0.4825818538665771,0.6102825403213501,0.4310209155082703,-0.4570441544055939,-0.1418463885784149,-0.9672114849090576,0.2106600552797318,-10.01504707336426,-57.39680480957031,-6.454530715942383,2
2017-12-05 15:37:31.204 -0800,89,BF2B89E4-20AD-4334-A98B-17808832B17C,1512517047.465873,49.27716982572304,-122.9074165639976,343.0205,-1,-1,10,65,-9999,105583.812100125,-0.1053466796875,-1.008697509765625,0.1262054443359375,105583.7441917917,-0.009271795335110867,0.5316106294216932,-0.108157363454734,105583.7366917917,0.8756185355079863,-2.548982463673977,1.314011377519828,-0.01088940352201462,0.5882614850997925,-0.081266850233078,-0.001570940017700195,-0.1108067035675049,0.04564189910888672,XArbitraryCorrectedZVertical,-0.4825818538665771,0.6102825403213501,0.4310209155082703,-0.4570441544055939,-0.1418463885784149,-0.9672114849090576,0.2106600552797318,-10.01504707336426,-57.39680480957031,-6.454530715942383,2
2017-12-05 15:37:31.234 -0800,90,BF2B89E4-20AD-4334-A98B-17808832B17C,1512517047.465873,49.27716982572304,-122.9074165639976,343.0205,-1,-1,10,65,-9999,105583.842276125,-0.1823883056640625,-0.9197845458984375,0.1543426513671875,105583.7441917917,-0.009271795335110867,0.5316106294216932,-0.108157363454734,105583.7366917917,0.8756185355079863,-2.548982463673977,1.314011377519828,-0.01088940352201462,0.5882614850997925,-0.081266850233078,-0.001570940017700195,-0.1108067035675049,0.04564189910888672,XArbitraryCorrectedZVertical,-0.4825818538665771,0.6102825403213501,0.4310209155082703,-0.4570441544055939,-0.1418463885784149,-0.9672114849090576,0.2106600552797318,-10.01504707336426,-57.39680480957031,-6.454530715942383,2
2017-12-05 15:37:31.244 -0800,91,BF2B89E4-20AD-4334-A98B-17808832B17C,1512517047.465873,49.27716982572304,-122.9074165639976,343.0205,-1,-1,10,65,-9999,105583.872451125,-0.1353759765625,-0.90203857421875,0.2888336181640625,105583.7441917917,-0.009271795335110867,0.5316106294216932,-0.108157363454734,105583.7366917917,0.8756185355079863,-2.548982463673977,1.314011377519828,-0.01088940352201462,0.5882614850997925,-0.081266850233078,-0.001570940017700195,-0.1108067035675049,0.04564189910888672,XArbitraryCorrectedZVertical,-0.4825818538665771,0.6102825403213501,0.4310209155082703,-0.4570441544055939,-0.1418463885784149,-0.9672114849090576,0.2106600552797318,-10.01504707336426,-57.39680480957031,-6.454530715942383,2
2017-12-05 15:37:31.244 -0800,92,BF2B89E4-20AD-4334-A98B-17808832B17C,1512517047.465873,49.27716982572304,-122.9074165639976,343.0205,-1,-1,10,65,-9999,105583.902626125,-0.29815673828125,-0.838043212890625,0.608795166015625,105583.7441917917,-0.009271795335110867,0.5316106294216932,-0.108157363454734,105583.7366917917,0.8756185355079863,-2.548982463673977,1.314011377519828,-0.01088940352201462,0.5882614850997925,-0.081266850233078,-0.001570940017700195,-0.1108067035675049,0.04564189910888672,XArbitraryCorrectedZVertical,-0.4825818538665771,0.6102825403213501,0.4310209155082703,-0.4570441544055939,-0.1418463885784149,-0.9672114849090576,0.2106600552797318,-10.01504707336426,-57.39680480957031,-6.454530715942383,2
2017-12-05 15:37:31.344 -0800,93,BF2B89E4-20AD-4334-A98B-17808832B17C,1512517047.465873,49.27716982572304,-122.9074165639976,343.0205,-1,-1,10,65,-9999,105583.932801125,-0.293487548828125,-0.939605712890625,0.728179931640625,105583.925243125,-1.79019952162053,0.06190571217110991,-0.9575619404911467,105583.912685125,0.9593974040125508,-2.675394585223152,1.314308891225724,-1.024545073509216,-0.5617296695709229,-0.6165022253990173,-0.1860371232032776,0.102235734462738,0.448731541633606,XArbitraryCorrectedZVertical,-0.4806929528713226,0.6182538866996765,0.4428614377975464,-0.4365420937538147,-0.1140269488096237,-0.967287003993988,0.2266071736812592,-9.308818817138672,-57.79953002929688,-5.045069694519043,2
2017-12-05 15:37:31.437 -0800,94,BF2B89E4-20AD-4334-A98B-17808832B17C,1512517047.465873,49.27716982572304,-122.9074165639976,343.0205,-1,-1,10,65,-9999,105583.962977125,-0.021636962890625,-0.934600830078125,0.047637939453125,105583.955418125,-2.259514552087525,1.038381422723999,-1.272159562165553,105583.947918125,0.9763763702506577,-2.682896312916919,1.385770829920938,-2.141384601593018,0.854788064956665,-1.214883327484131,-0.1402693092823029,0.05696725845336914,0.3040145635604858,XArbitraryCorrectedZVertical,-0.4796762764453888,0.5936204195022583,0.4673300087451935,-0.4462366700172424,-0.08145616203546524,-0.9829315543174744,0.1649490594863892,-7.290431976318359,-57.68221282958984,-8.575230598449707,2
2017-12-05 15:37:31.438 -0800,95,BF2B89E4-20AD-4334-A98B-17808832B17C,1512517047.465873,49.27716982572304,-122.9074165639976,343.0205,-1,-1,10,65,-9999,105583.993152125,0.2427978515625,-1.06744384765625,-0.4510345458984375,105583.985593125,0.5935578869058084,-1.021141715723481,0.2091319151334154,105583.947918125,0.9763763702506577,-2.682896312916919,1.385770829920938,-2.141384601593018,0.854788064956665,-1.214883327484131,-0.1402693092823029,0.05696725845336914,0.3040145635604858,XArbitraryCorrectedZVertical,-0.4796762764453888,0.5936204195022583,0.4673300087451935,-0.4462366700172424,-0.08145616203546524,-0.9829315543174744,0.1649490594863892,-7.290431976318359,-57.68221282958984,-8.575230598449707,2
2017-12-05 15:37:31.439 -0800,96,BF2B89E4-20AD-4334-A98B-17808832B17C,1512517047.465873,49.27716982572304,-122.9074165639976,343.0205,-1,-1,10,65,-9999,105584.023327125,-0.312042236328125,-0.84136962890625,0.796966552734375,105584.015769125,-0.05995228351153679,0.7358170281190071,-0.2041182480652322,105583.947918125,0.9763763702506577,-2.682896312916919,1.385770829920938,-2.141384601593018,0.854788064956665,-1.214883327484131,-0.1402693092823029,0.05696725845336914,0.3040145635604858,XArbitraryCorrectedZVertical,-0.4796762764453888,0.5936204195022583,0.4673300087451935,-0.4462366700172424,-0.08145616203546524,-0.9829315543174744,0.1649490594863892,-7.290431976318359,-57.68221282958984,-8.575230598449707,2
2017-12-05 15:37:31.440 -0800,97,BF2B89E4-20AD-4334-A98B-17808832B17C,1512517047.465873,49.27716982572304,-122.9074165639976,343.0205,-1,-1,10,65,-9999,105584.053502125,0.209716796875,-1.09222412109375,-0.54058837890625,105584.045944125,0.0305813451134889,0.595427958623262,-0.139682532858547,105583.947918125,0.9763763702506577,-2.682896312916919,1.385770829920938,-2.141384601593018,0.854788064956665,-1.214883327484131,-0.1402693092823029,0.05696725845336914,0.3040145635604858,XArbitraryCorrectedZVertical,-0.4796762764453888,0.5936204195022583,0.4673300087451935,-0.4462366700172424,-0.08145616203546524,-0.9829315543174744,0.1649490594863892,-7.290431976318359,-57.68221282958984,-8.575230598449707,2
2017-12-05 15:37:31.441 -0800,98,BF2B89E4-20AD-4334-A98B-17808832B17C,1512517047.465873,49.27716982572304,-122.9074165639976,343.0205,-1,-1,10,65,-9999,105584.083678125,-0.1517181396484375,-0.97467041015625,0.450164794921875,105584.076119125,0.09044973905068819,-0.1700119429329144,0.002379268117876792,105583.947918125,0.9763763702506577,-2.682896312916919,1.385770829920938,-2.141384601593018,0.854788064956665,-1.214883327484131,-0.1402693092823029,0.05696725845336914,0.3040145635604858,XArbitraryCorrectedZVertical,-0.4796762764453888,0.5936204195022583,0.4673300087451935,-0.4462366700172424,-0.08145616203546524,-0.9829315543174744,0.1649490594863892,-7.290431976318359,-57.68221282958984,-8.575230598449707,2
2017-12-05 15:37:31.442 -0800,99,BF2B89E4-20AD-4334-A98B-17808832B17C,1512517047.465873,49.27716982572304,-122.9074165639976,343.0205,-1,-1,10,65,-9999,105584.113853125,0.0969696044921875,-1.027694702148438,-0.0514678955078125,105584.106294125,-0.1340819050861104,0.02052711305011275,0.0102039017166386,105583.947918125,0.9763763702506577,-2.682896312916919,1.385770829920938,-2.141384601593018,0.854788064956665,-1.214883327484131,-0.1402693092823029,0.05696725845336914,0.3040145635604858,XArbitraryCorrectedZVertical,-0.4796762764453888,0.5936204195022583,0.4673300087451935,-0.4462366700172424,-0.08145616203546524,-0.9829315543174744,0.1649490594863892,-7.290431976318359,-57.68221282958984,-8.575230598449707,2
2017-12-05 15:37:31.443 -0800,100,BF2B89E4-20AD-4334-A98B-17808832B17C,1512517047.465873,49.27716982572304,-122.9074165639976,343.0205,-1,-1,10,65,-9999,105584.144028125,-0.10968017578125,-0.971588134765625,0.2611083984375,105584.136470125,0.0466905402312692,-0.2064413234841083,0.1517296083656295,105583.947918125,0.9763763702506577,-2.682896312916919,1.385770829920938,-2.141384601593018,0.854788064956665,-1.214883327484131,-0.1402693092823029,0.05696725845336914,0.3040145635604858,XArbitraryCorrectedZVertical,-0.4796762764453888,0.5936204195022583,0.4673300087451935,-0.4462366700172424,-0.08145616203546524,-0.9829315543174744,0.1649490594863892,-7.290431976318359,-57.68221282958984,-8.575230598449707,2
2017-12-05 15:37:31.466 -0800,101,BF2B89E4-20AD-4334-A98B-17808832B17C,1512517047.465873,49.27716982572304,-122.9074165639976,343.0205,-1,-1,10,65,-9999,105584.174203125,-0.0960235595703125,-0.9657135009765625,0.0590362548828125,105584.166645125,-0.05751229532080619,-0.01001135516982587,-0.03398992499268132,105583.947918125,0.9763763702506577,-2.682896312916919,1.385770829920938,-2.141384601593018,0.854788064956665,-1.214883327484131,-0.1402693092823029,0.05696725845336914,0.3040145635604858,XArbitraryCorrectedZVertical,-0.4796762764453888,0.5936204195022583,0.4673300087451935,-0.4462366700172424,-0.08145616203546524,-0.9829315543174744,0.1649490594863892,-7.290431976318359,-57.68221282958984,-8.575230598449707,2
2017-12-05 15:37:31.538 -0800,102,BF2B89E4-20AD-4334-A98B-17808832B17C,1512517047.465873,49.27716982572304,-122.9074165639976,343.0205,-1,-1,10,65,-9999,105584.204378125,-0.0938568115234375,-0.98089599609375,0.1905364990234375,105584.196820125,-0.001180845627341134,-0.009867011838743578,-0.04068963934699366,105584.178012125,1.173138754668832,-2.838950603875799,1.368694111968357,-0.01188131608068943,-0.04109282791614532,-0.03377809375524521,-0.0132332444190979,0.002443373203277588,-0.1486374139785767,XArbitraryCorrectedZVertical,-0.5033405423164368,0.5851934552192688,0.4558302164077759,-0.4431880712509155,-0.05982585996389389,-0.9796467423439026,0.1916061639785767,-5.543350219726562,-58.04582977294922,-10.94514274597168,2
2017-12-05 15:37:31.540 -0800,103,BF2B89E4-20AD-4334-A98B-17808832B17C,1512517047.465873,49.27716982572304,-122.9074165639976,343.0205,-1,-1,10,65,-9999,105584.234554125,-0.048309326171875,-0.98980712890625,0.07568359375,105584.226995125,-0.01640880074041422,0.009888317127464212,-0.08786008120669514,105584.213187125,1.180568899985128,-2.845240666496227,1.368810387097717,-0.03801670297980309,0.0313456766307354,-0.06502369046211243,-0.04366260766983032,0.004496216773986816,-6.914138793945312e-06,XArbitraryCorrectedZVertical,-0.5040654540061951,0.5846823453903198,0.4558080732822418,-0.4430617392063141,-0.05858654528856277,-0.9796701073646545,0.191870853304863,-5.427219390869141,-57.92191314697266,-11.02469635009766,2
2017-12-05 15:37:31.556 -0800,104,BF2B89E4-20AD-4334-A98B-17808832B17C,1512517047.465873,49.27716982572304,-122.9074165639976,343.0205,-1,-1,10,65,-9999,105584.264729125,-0.056549072265625,-0.9958038330078125,0.1578369140625,105584.257171125,0.003144660615165564,-0.04059403186385981,-0.06953247290087883,105584.248421125,1.193290989403194,-2.857104218427606,1.369884484311238,0.02314302697777748,-0.04977742582559586,-0.06178120151162148,0.01374375820159912,-0.0147743821144104,-0.08868193626403809,XArbitraryCorrectedZVertical,-0.5049384236335754,0.5837875604629517,0.4563523828983307,-0.4426869750022888,-0.05601059272885323,-0.9798850417137146,0.1915414482355118,-5.232395172119141,-58.03542327880859,-10.91207695007324,2
2017-12-05 15:37:31.587 -0800,105,BF2B89E4-20AD-4334-A98B-17808832B17C,1512517047.465873,49.27716982572304,-122.9074165639976,343.0205,-1,-1,10,65,-9999,105584.294904125,-0.0329132080078125,-0.99725341796875,0.1040191650390625,105584.287346125,-0.002986468846414858,-0.06478245878061351,-0.04904184515770017,105584.283596125,1.20475645210878,-2.86797372484791,1.370538318781942,-0.01935848407447338,-0.0476926676928997,-0.05086780712008476,0.006801038980484009,-0.01969480514526367,-0.05523085594177246,XArbitraryCorrectedZVertical,-0.5057153105735779,0.583106517791748,0.4567853212356567,-0.4422510862350464,-0.05375232174992561,-0.9800152778625488,0.1915223747491837,-5.043865203857422,-58.09892272949219,-10.99189186096191,2
2017-12-05 15:37:31.617 -0800,106,BF2B89E4-20AD-4334-A98B-17808832B17C,1512517047.465873,49.27716982572304,-122.9074165639976,343.0205,-1,-1,10,65,-9999,105584.325079125,-0.0691070556640625,-0.982269287109375,0.164764404296875,105584.317521125,-0.01866183502262125,-0.1098500686435884,-0.05307893105415128,105584.283596125,1.20475645210878,-2.86797372484791,1.370538318781942,-0.01935848407447338,-0.0476926676928997,-0.05086780712008476,0.006801038980484009,-0.01969480514526367,-0.05523085594177246,XArbitraryCorrectedZVertical,-0.5057153105735779,0.583106517791748,0.4567853212356567,-0.4422510862350464,-0.05375232174992561,-0.9800152778625488,0.1915223747491837,-5.043865203857422,-58.09892272949219,-10.99189186096191,2
2017-12-05 15:37:31.735 -0800,107,BF2B89E4-20AD-4334-A98B-17808832B17C,1512517047.465873,49.27716982572304,-122.9074165639976,343.0205,-1,-1,10,65,-9999,105584.355255125,-0.03302001953125,-1.00189208984375,0.131439208984375,105584.347696125,-0.03669409876354777,-0.08465816262809288,-0.005926332373753329,105584.318829125,1.246557499411189,-2.913337652436194,1.400854866207974,-0.003949360456317663,-0.1190505996346474,-0.03779967874288559,-0.0301976203918457,0.004698693752288818,-0.01173543930053711,XArbitraryCorrectedZVertical,-0.5029739141464233,0.5739206075668335,0.4691237807273865,-0.4444714188575745,-0.0382685661315918,-0.9855946898460388,0.1647352427244186,-4.980518341064453,-58.08236694335938,-10.88358974456787,2
2017-12-05 15:37:31.739 -0800,108,BF2B89E4-20AD-4334-A98B-17808832B17C,1512517047.465873,49.27716982572304,-122.9074165639976,343.0205,-1,-1,10,65,-9999,105584.385430125,-0.024658203125,-1.002044677734375,0.15020751953125,105584.377871125,-0.007288006639110843,0.003256513380948893,0.03968376340327073,105584.354005125,1.182467733703082,-2.856418570342063,1.410889388961681,-0.03164099901914597,-0.08179972320795059,0.006137316580861807,0.01410812139511108,-0.02028048038482666,-0.01926338672637939,XArbitraryCorrectedZVertical,-0.4965411722660065,0.5743199586868286,0.4725488126277924,-0.4475496709346771,-0.04479353502392769,-0.9872421026229858,0.1527930945158005,-4.887550354003906,-58.24318695068359,-10.89639663696289,2
2017-12-05 15:37:31.743 -0800,109,BF2B89E4-20AD-4334-A98B-17808832B17C,1512517047.465873,49.27716982572304,-122.9074165639976,343.0205,-1,-1,10,65,-9999,105584.415605125,-0.0711517333984375,-0.9828338623046875,0.1147918701171875,105584.408047125,0.02422331432703373,0.05057183120395069,0.02112605797927157,105584.389238125,1.168627387790107,-2.847609740942219,1.422794906341031,-0.003361613489687443,0.02038617432117462,0.05919945240020752,0.003880172967910767,-0.004203081130981445,0.002527713775634766,XArbitraryCorrectedZVertical,-0.4930837750434875,0.5722196102142334,0.4775031507015228,-0.4488024711608887,-0.04272903874516487,-0.9890677928924561,0.1411337852478027,-5.029308319091797,-57.98502349853516,-10.96377182006836,2
2017-12-05 15:37:31.746 -0800,110,BF2B89E4-20AD-4334-A98B-17808832B17C,1512517047.465873,49.27716982572304,-122.9074165639976,343.0205,-1,-1,10,65,-9999,105584.445780125,-0.0431060791015625,-0.99957275390625,0.1434326171875,105584.438222125,0.01993136391426203,0.04178553013556126,-0.0002580603096286782,105584.424413125,1.143294415822788,-2.823434788704787,1.418011711728219,0.03139287233352661,0.04465672373771667,0.01820651814341545,-0.01852363348007202,0.005334138870239258,-0.02603793144226074,XArbitraryCorrectedZVertical,-0.4921921491622925,0.5744765996932983,0.4756025671958923,-0.4489161670207977,-0.04760796576738358,-0.9883511066436768,0.1445529460906982,-5.077587127685547,-57.87643432617188,-10.67485046386719,2
2017-12-05 15:37:31.768 -0800,111,BF2B89E4-20AD-4334-A98B-17808832B17C,1512517047.465873,49.27716982572304,-122.9074165639976,343.0205,-1,-1,10,65,-9999,105584.475955125,-0.0477752685546875,-0.988983154296875,0.145721435546875,105584.468397125,0.002433596604114408,-0.02636849058509255,0.03010597085890976,105584.459647125,1.153330109945174,-2.835347679297356,1.419677281739109,0.0231581125408411,0.01277750171720982,0.03337646648287773,0.01421225070953369,-0.00649869441986084,-0.0117642879486084,XArbitraryCorrectedZVertical,-0.4920288622379303,0.574175238609314,0.4768531620502472,-0.4481532573699951,-0.04538596794009209,-0.9886032342910767,0.1435392051935196,-5.2738037109375,-57.6739501953125,-10.72997856140137,2
2017-12-05 15:37:31.798 -0800,112,BF2B89E4-20AD-4334-A98B-17808832B17C,1512517047.465873,49.27716982572304,-122.9074165639976,343.0205,-1,-1,10,65,-9999,105584.506131125,-0.0710601806640625,-0.987518310546875,0.13092041015625,105584.498572125,-0.034516964572408,-0.08575591762942353,0.003715109720660537,105584.494822125,1.121018968596466,-2.805498194928387,1.420196712726745,-0.02323155105113983,-0.05542810261249542,0.02314472384750843,-0.009281188249588013,0.006671428680419922,0.003688573837280273,XArbitraryCorrectedZVertical,-0.4897980988025665,0.575252890586853,0.4769526422023773,-0.4491080343723297,-0.04948039352893829,-0.9886813163757324,0.1416361331939697,-5.154094696044922,-57.58167266845703,-10.89337825775146,2
2017-12-05 15:37:31.886 -0800,113,BF2B89E4-20AD-4334-A98B-17808832B17C,1512517047.465873,49.27716982572304,-122.9074165639976,343.0205,-1,-1,10,65,-9999,105584.536306125,-0.0543060302734375,-0.9822998046875,0.11376953125,105584.528747125,-0.03332892841012365,-0.1077168766104349,-0.0004924184855556511,105584.494822125,1.121018968596466,-2.805498194928387,1.420196712726745,-0.02323155105113983,-0.05542810261249542,0.02314472384750843,-0.009281188249588013,0.006671428680419922,0.003688573837280273,XArbitraryCorrectedZVertical,-0.4897980988025665,0.575252890586853,0.4769526422023773,-0.4491080343723297,-0.04948039352893829,-0.9886813163757324,0.1416361331939697,-5.154094696044922,-57.58167266845703,-10.89337825775146,2
2017-12-05 15:37:31.946 -0800,114,BF2B89E4-20AD-4334-A98B-17808832B17C,1512517047.465873,49.27716982572304,-122.9074165639976,343.0205,-1,-1,10,65,-9999,105584.566481125,-0.079864501953125,-0.9830169677734375,0.1422882080078125,105584.558923125,-0.01273443738443189,-0.05381183298614109,-0.07262120713315273,105584.530056125,1.105881906023464,-2.795104575473573,1.421827616360068,-0.02934275381267071,-0.1059583649039268,0.009436342865228653,0.000505983829498291,-0.0006536245346069336,-0.02829980850219727,XArbitraryCorrectedZVertical,-0.4877354800701141,0.5761187672615051,0.4783751666545868,-0.4487297534942627,-0.05040218308568001,-0.9889246821403503,0.1395974606275558,-5.356708526611328,-57.79483032226562,-11.00086975097656,2
2017-12-05 15:37:31.981 -0800,115,BF2B89E4-20AD-4334-A98B-17808832B17C,1512517047.465873,49.27716982572304,-122.9074165639976,343.0205,-1,-1,10,65,-9999,105584.596656125,0.071258544921875,-0.98626708984375,0.07830810546875,105584.589098125,-0.1687618551172312,0.292570616298361,0.5002545707471003,105584.565231125,1.116168816852465,-2.809098948817318,1.42280767336283,-0.01091623492538929,-0.04766453430056572,-0.06484410911798477,-0.04360860586166382,0.01182049512863159,-0.004927396774291992,XArbitraryCorrectedZVertical,-0.4872342646121979,0.5764452219009399,0.4798212647438049,-0.447308748960495,-0.04812726005911827,-0.9890696406364441,0.1393726468086243,-5.302700042724609,-57.88961029052734,-10.95011234283447,2
2017-12-05 15:37:31.983 -0800,116,BF2B89E4-20AD-4334-A98B-17808832B17C,1512517047.465873,49.27716982572304,-122.9074165639976,343.0205,-1,-1,10,65,-9999,105584.626831125,-0.217193603515625,-0.961395263671875,0.140228271484375,105584.619273125,-0.08578068502756127,-0.006840062943759515,0.07011037885742602,105584.600465125,1.028847802397127,-2.717859636786945,1.422276802097399,-0.1181011199951172,0.1242270469665527,0.4741798341274261,-0.02544727921485901,0.03470659255981445,-0.1762368679046631,XArbitraryCorrectedZVertical,-0.4839275181293488,0.5772840976715088,0.4771284759044647,-0.4526647627353668,-0.06084113940596581,-0.9889912605285645,0.1348855495452881,-5.892547607421875,-57.79973602294922,-11.17770385742188,2
2017-12-05 15:37:31.985 -0800,117,BF2B89E4-20AD-4334-A98B-17808832B17C,1512517047.465873,49.27716982572304,-122.9074165639976,343.0205,-1,-1,10,65,-9999,105584.657007125,-0.126922607421875,-0.959197998046875,0.178314208984375,105584.649448125,-0.04521727951623737,0.1592064331260269,-0.1290410737748084,105584.635640125,0.9853961420034323,-2.674940462599408,1.42231344432988,-0.05900371074676514,0.03016378730535507,-0.00381847657263279,-0.09248644113540649,-0.003694415092468262,-0.01277899742126465,XArbitraryCorrectedZVertical,-0.4816079139709473,0.5780249238014221,0.4766383469104767,-0.4547049105167389,-0.0665559396147728,-0.988996684551239,0.1321179866790771,-6.009162902832031,-57.81890869140625,-11.45150470733643,2
2017-12-05 15:37:31.987 -0800,118,BF2B89E4-20AD-4334-A98B-17808832B17C,1512517047.465873,49.27716982572304,-122.9074165639976,343.0205,-1,-1,10,65,-9999,105584.687182125,-0.0631561279296875,-0.9690093994140625,0.15728759765625,105584.679624125,-0.08731626371210095,0.379888211591007,-0.1843733054272757,105584.670874125,1.005561065197075,-2.688790526206746,1.425577172867798,-0.06566882878541946,0.2916226089000702,-0.1602426916360855,-0.003662914037704468,0.02163976430892944,0.03558540344238281,XArbitraryCorrectedZVertical,-0.4838731288909912,0.575264573097229,0.4765636026859283,-0.4558776617050171,-0.06330789625644684,-0.9894742369651794,0.1301250606775284,-5.884727478027344,-57.81138610839844,-11.55386066436768,2
2017-12-05 15:37:32.049 -0800,119,BF2B89E4-20AD-4334-A98B-17808832B17C,1512517047.465873,49.27716982572304,-122.9074165639976,343.0205,-1,-1,10,65,-9999,105584.717357125,-0.095489501953125,-1.067367553710938,0.1312255859375,105584.709799125,-0.1041684807740134,0.5270118828513444,-0.1709333966700819,105584.706049125,1.035284386875703,-2.703047823768746,1.430569192965354,-0.08952588587999344,0.5255014300346375,-0.1599717736244202,-0.03089302778244019,-0.04387331008911133,0.002611160278320312,XArbitraryCorrectedZVertical,-0.4885748028755188,0.5697054266929626,0.4750102758407593,-0.4594510495662689,-0.05934740975499153,-0.9901842474937439,0.1265392154455185,-5.351360321044922,-57.88404083251953,-11.69665813446045,2
2017-12-05 15:37:32.052 -0800,120,BF2B89E4-20AD-4334-A98B-17808832B17C,1512517047.465873,49.27716982572304,-122.9074165639976,343.0205,-1,-1,10,65,-9999,105584.747532125,0.0057830810546875,-0.9635467529296875,0.0414581298828125,105584.739974125,-0.01382340395416529,0.2273870854575815,-0.1433920499409184,105584.706049125,1.035284386875703,-2.703047823768746,1.430569192965354,-0.08952588587999344,0.5255014300346375,-0.1599717736244202,-0.03089302778244019,-0.04387331008911133,0.002611160278320312,XArbitraryCorrectedZVertical,-0.4885748028755188,0.5697054266929626,0.4750102758407593,-0.4594510495662689,-0.05934740975499153,-0.9901842474937439,0.1265392154455185,-5.351360321044922,-57.88404083251953,-11.69665813446045,2
2017-12-05 15:37:32.069 -0800,121,BF2B89E4-20AD-4334-A98B-17808832B17C,1512517047.465873,49.27716982572304,-122.9074165639976,343.0205,-1,-1,10,65,-9999,105584.777708125,-0.00823974609375,-1.0289306640625,0.1471405029296875,105584.770149125,-0.008287490996217582,0.1251888112580088,-0.005809952234116866,105584.741282125,1.0670025995185,-2.719811432015396,1.435448378326255,-0.02615809999406338,0.270851194858551,-0.1549879908561707,0.04422259330749512,0.01919007301330566,-0.08184719085693359,XArbitraryCorrectedZVertical,-0.4931455552577972,0.5642348527908325,0.4735377132892609,-0.4628263115882874,-0.05523943528532982,-0.9908544421195984,0.1231070160865784,-4.965415954589844,-57.95646667480469,-11.96686840057373,2
2017-12-05 15:37:32.282 -0800,122,BF2B89E4-20AD-4334-A98B-17808832B17C,1512517047.465873,49.27716982572304,-122.9074165639976,343.0205,-1,-1,10,65,-9999,105584.8078835,-0.0926666259765625,-0.9845123291015625,0.090118408203125,105584.800324125,-0.02591708478032412,0.05814692660857207,-0.003320162931001786,105584.776458125,1.079000721653891,-2.727433851983948,1.433725537022563,-0.00538582494482398,0.1324338018894196,0.008388888090848923,0.03693467378616333,-0.04221642017364502,0.01173973083496094,XArbitraryCorrectedZVertical,-0.4948939979076385,0.5635803937911987,0.4720369875431061,-0.4632900357246399,-0.05498581752181053,-0.990620493888855,0.125085860490799,-4.9967041015625,-57.97609710693359,-12.15934753417969,2
2017-12-05 15:37:32.417 -0800,123,BF2B89E4-20AD-4334-A98B-17808832B17C,1512517047.465873,49.27716982572304,-122.9074165639976,343.0205,-1,-1,10,65,-9999,105584.8380585,-0.0660400390625,-0.9818878173828125,0.115631103515625,105584.8305005,-0.01300048717733081,-0.0109802131743967,-0.06957162136890299,105584.8116915,1.046281611090762,-2.691745058670322,1.434706906747237,-0.01019074115902185,0.03798015043139458,-0.01587232947349548,-0.04035773873329163,0.009247779846191406,-0.03893411159515381,XArbitraryCorrectedZVertical,-0.4940021336078644,0.5630695223808289,0.4711592495441437,-0.4657503068447113,-0.05899225547909737,-0.9907541275024414,0.1221707910299301,-4.970733642578125,-57.62513732910156,-11.93400192260742,2
2017-12-05 15:37:32.537 -0800,124,BF2B89E4-20AD-4334-A98B-17808832B17C,1512517047.465873,49.27716982572304,-122.9074165639976,343.0205,-1,-1,10,65,-9999,105584.8682335,-0.07415771484375,-1.008407592773438,0.0904998779296875,105584.8606755,0.003216565964597704,-0.07572165927422297,-0.1047695562320443,105584.8468675,1.073507748816418,-2.719791372508204,1.440854074548223,-0.01001393795013428,-0.03008387424051762,-0.07563597708940506,-0.01643908023834229,0.01073437929153442,-0.005503416061401367,XArbitraryCorrectedZVertical,-0.4944584965705872,0.560910701751709,0.4739238321781158,-0.4650658071041107,-0.05304944515228271,-0.9915693998336792,0.1182200387120247,-4.884006500244141,-57.89633941650391,-12.09617900848389,2
2017-12-05 15:37:32.540 -0800,125,BF2B89E4-20AD-4334-A98B-17808832B17C,1512517047.465873,49.27716982572304,-122.9074165639976,343.0205,-1,-1,10,65,-9999,105584.8984095,-0.0552825927734375,-1.005081176757812,0.1013336181640625,105584.8908505,0.02268134405587785,-0.1009519148094157,-0.06938919483423257,105584.8821005,1.105730445036604,-2.7553725397782,1.442068425519661,0.02433016896247864,-0.07283554971218109,-0.0681278333067894,0.003541857004165649,-0.02409738302230835,-0.01401317119598389,XArbitraryCorrectedZVertical,-0.4949227273464203,0.5608120560646057,0.4756731688976288,-0.4629000425338745,-0.04835692420601845,-0.9917259812355042,0.1189173385500908,-4.639305114746094,-57.86276245117188,-11.8607234954834,2
2017-12-05 15:37:32.543 -0800,126,BF2B89E4-20AD-4334-A98B-17808832B17C,1512517047.465873,49.27716982572304,-122.9074165639976,343.0205,-1,-1,10,65,-9999,105584.9285845,-0.0398406982421875,-0.9857177734375,0.13555908203125,105584.9210255,-0.003793406656708867,-0.09444581226635208,-0.03498674618869797,105584.9172755,1.100743610343694,-2.754397677972307,1.44198160619837,0.01829632371664047,-0.105815201997757,-0.03795689716935158,0.002545744180679321,-0.005004525184631348,-0.004539251327514648,XArbitraryCorrectedZVertical,-0.4937645792961121,0.5618463754653931,0.4765551686286926,-0.4619744718074799,-0.04850523918867111,-0.9917148351669312,0.1189496219158173,-4.619541168212891,-57.91040802001953,-11.79036426544189,2
2017-12-05 15:37:32.545 -0800,127,BF2B89E4-20AD-4334-A98B-17808832B17C,1512517047.465873,49.27716982572304,-122.9074165639976,343.0205,-1,-1,10,65,-9999,105584.9587595,-0.058837890625,-0.9765625,0.108184814453125,105584.9512015,-0.01786927828221367,-0.05165041144543277,-0.0286556133292526,105584.9172755,1.100743610343694,-2.754397677972307,1.44198160619837,0.01829632371664047,-0.105815201997757,-0.03795689716935158,0.002545744180679321,-0.005004525184631348,-0.004539251327514648,XArbitraryCorrectedZVertical,-0.4937645792961121,0.5618463754653931,0.4765551686286926,-0.4619744718074799,-0.04850523918867111,-0.9917148351669312,0.1189496219158173,-4.619541168212891,-57.91040802001953,-11.79036426544189,2
2017-12-05 15:37:32.548 -0800,128,BF2B89E4-20AD-4334-A98B-17808832B17C,1512517047.465873,49.27716982572304,-122.9074165639976,343.0205,-1,-1,10,65,-9999,105584.9889345,-0.071624755859375,-0.966064453125,0.1518707275390625,105584.9813765,-0.0241953511355879,0.03514999796351984,-0.1275837920263171,105584.9525095,1.085843476308301,-2.742367859942279,1.442901103407573,-0.01707025617361069,-0.04880335554480553,-0.0155014730989933,-1.329183578491211e-05,0.009822666645050049,-0.002556681632995605,XArbitraryCorrectedZVertical,-0.4923482239246368,0.5624512434005737,0.4773513376712799,-0.4619279801845551,-0.04957776889204979,-0.9918325543403625,0.1175163462758064,-4.610187530517578,-57.71365356445312,-11.98784732818604,2
2017-12-05 15:37:32.550 -0800,129,BF2B89E4-20AD-4334-A98B-17808832B17C,1512517047.465873,49.27716982572304,-122.9074165639976,343.0205,-1,-1,10,65,-9999,105585.0191105,-0.0690460205078125,-0.909393310546875,0.1116180419921875,105585.0115515,-0.01609401509956685,0.1615484169886426,-0.2717569471149557,105584.9876845,1.099375774438399,-2.756749580833144,1.444943813577246,-0.02133936062455177,0.04240040108561516,-0.1241034641861916,-0.02737218141555786,0.02103698253631592,0.03406858444213867,XArbitraryCorrectedZVertical,-0.4924986660480499,0.5617951154708862,0.4784796833992004,-0.4613981246948242,-0.04712121561169624,-0.9920910000801086,0.1163373738527298,-4.480300903320312,-57.95781707763672,-11.96070098876953,2
2017-12-05 15:37:32.552 -0800,130,BF2B89E4-20AD-4334-A98B-17808832B17C,1512517047.465873,49.27716982572304,-122.9074165639976,343.0205,-1,-1,10,65,-9999,105585.0492855,-0.022979736328125,-1.023391723632812,0.1679534912109375,105585.0417265,-0.02638127375832493,0.2109910678903997,-0.3598007864368663,105585.0229185,1.157682856626164,-2.809795257610239,1.447777352968034,-0.004869139287620783,0.1655427664518356,-0.3036782741546631,-0.04096138477325439,0.08387339115142822,-0.007113218307495117,XArbitraryCorrectedZVertical,-0.4958003759384155,0.5587393045425415,0.4791144132614136,-0.4609139263629913,-0.0399712398648262,-0.9924427270889282,0.1160152480006218,-3.910751342773438,-58.01892852783203,-11.75784206390381,2
2017-12-05 15:37:32.555 -0800,131,BF2B89E4-20AD-4334-A98B-17808832B17C,1512517047.465873,49.27716982572304,-122.9074165639976,343.0205,-1,-1,10,65,-9999,105585.0794605,-0.0247802734375,-0.953094482421875,0.0855712890625,105585.0719025,-0.04397571381604243,0.3492964801492668,-0.2873660005800192,105585.0580935,1.239571436302161,-2.883791050015446,1.451325449075416,-0.03779511153697968,0.3323952257633209,-0.289166659116745,0.02918106317520142,-0.04158252477645874,0.06279468536376953,XArbitraryCorrectedZVertical,-0.5003530383110046,0.5543187260627747,0.4798618853092194,-0.4605537950992584,-0.03038648143410683,-0.9928718209266663,0.1152448281645775,-3.335010528564453,-57.96572875976562,-11.98561096191406,2
2017-12-05 15:37:32.557 -0800,132,BF2B89E4-20AD-4334-A98B-17808832B17C,1512517047.465873,49.27716982572304,-122.9074165639976,343.0205,-1,-1,10,65,-9999,105585.1096355,0.017242431640625,-0.87725830078125,0.0569000244140625,105585.1020775,-0.02995976331506441,0.276875542730088,-0.3503939688344884,105585.0933275,1.304718302146873,-2.935552329013829,1.453318977944432,-0.04873079061508179,0.3554490506649017,-0.3224357962608337,0.002417296171188354,0.1145979166030884,-0.0003283023834228516,XArbitraryCorrectedZVertical,-0.5056052803993225,0.5492950677871704,0.4784914255142212,-0.4622593224048615,-0.02397794835269451,-0.9931074976921082,0.1147235408425331,-2.569644927978516,-57.90532684326172,-12.10687446594238,2
2017-12-05 15:37:32.559 -0800,133,BF2B89E4-20AD-4334-A98B-17808832B17C,1512517047.465873,49.27716982572304,-122.9074165639976,343.0205,-1,-1,10,65,-9999,105585.1398105,0.0175933837890625,-1.048583984375,0.19268798828125,105585.1322525,-0.05355110951542233,0.3251282932567977,-0.3236720767727423,105585.1285025,1.398022045803653,-3.018944212139706,1.455600892927521,-0.01819982379674911,0.2160587012767792,-0.3574095070362091,0.001961469650268555,0.04947888851165771,-0.012847900390625,XArbitraryCorrectedZVertical,-0.5107381343841553,0.5442278385162354,0.4788179993629456,-0.4622722864151001,-0.01406167075037956,-0.9933723211288452,0.1140747666358948,-1.849655151367188,-58.04519653320312,-12.17456817626953,2
2017-12-05 15:37:32.561 -0800,134,BF2B89E4-20AD-4334-A98B-17808832B17C,1512517047.465873,49.27716982572304,-122.9074165639976,343.0205,-1,-1,10,65,-9999,105585.1699865,-0.009796142578125,-1.013763427734375,0.046112060546875,105585.1624275,-0.04380873361569446,0.4854873425026109,-0.2889713540851189,105585.1285025,1.398022045803653,-3.018944212139706,1.455600892927521,-0.01819982379674911,0.2160587012767792,-0.3574095070362091,0.001961469650268555,0.04947888851165771,-0.012847900390625,XArbitraryCorrectedZVertical,-0.5107381343841553,0.5442278385162354,0.4788179993629456,-0.4622722864151001,-0.01406167075037956,-0.9933723211288452,0.1140747666358948,-1.849655151367188,-58.04519653320312,-12.17456817626953,2
2017-12-05 15:37:32.564 -0800,135,BF2B89E4-20AD-4334-A98B-17808832B17C,1512517047.465873,49.27716982572304,-122.9074165639976,343.0205,-1,-1,10,65,-9999,105585.2001615,0.114044189453125,-0.9874114990234375,0.107421875,105585.1926035,-0.04467079886055311,0.1020763014216471,-0.09023029457686566,105585.1637365,1.48675145524841,-3.090448660373256,1.457994919950037,-0.04760473966598511,0.5355538725852966,-0.2834832370281219,-0.006879925727844238,-0.03926849365234375,-0.03847062587738037,XArbitraryCorrectedZVertical,-0.5171429514884949,0.5373737215995789,0.4773244261741638,-0.4647085070610046,-0.005754354875534773,-0.993644654750824,0.1124146953225136,-1.008800506591797,-58.20178985595703,-12.30490016937256,2
2017-12-05 15:37:32.600 -0800,136,BF2B89E4-20AD-4334-A98B-17808832B17C,1512517047.465873,49.27716982572304,-122.9074165639976,343.0205,-1,-1,10,65,-9999,105585.2303365,0.03369140625,-1.007003784179688,0.0746002197265625,105585.2227785,-0.0843529643671698,0.0040970070209779,0.1676076411007909,105585.1989115,1.549594247843294,3.13887204670496,1.459947037268754,-0.04167155921459198,0.1005307957530022,-0.06742145121097565,0.1054119169712067,0.01241719722747803,-0.01931154727935791,XArbitraryCorrectedZVertical,-0.5206661820411682,0.5331198573112488,0.4772149622440338,-0.4657849669456482,0.0003009545907843858,-0.993862509727478,0.1106201112270355,-0.8271484375,-57.91177368164062,-12.43209362030029,2
2017-12-05 15:37:32.601 -0800,137,BF2B89E4-20AD-4334-A98B-17808832B17C,1512517047.465873,49.27716982572304,-122.9074165639976,343.0205,-1,-1,10,65,-9999,105585.2605115,-0.012908935546875,-1.030990600585938,0.12164306640625,105585.2529535,-0.09414807085648123,-0.01797260893250875,0.3231722014361345,105585.2341455,1.514651677956401,-3.108908656875566,1.460901940880799,-0.07342594861984253,-0.06113800033926964,0.2056350558996201,0.02601385116577148,-0.01320397853851318,-0.05053353309631348,XArbitraryCorrectedZVertical,-0.5195684432983398,0.5337122678756714,0.476415604352951,-0.4671472907066345,-0.00358345196582377,-0.9939677119255066,0.109600305557251,-1.040157318115234,-57.95937347412109,-12.38600921630859,2
2017-12-05 15:37:32.603 -0800,138,BF2B89E4-20AD-4334-A98B-17808832B17C,1512517047.465873,49.27716982572304,-122.9074165639976,343.0205,-1,-1,10,65,-9999,105585.2906875,-0.0720367431640625,-1.05316162109375,0.1186370849609375,105585.2831285,-0.08670027455196563,0.06338057078279578,0.2049049458512416,105585.2693205,1.419406901467011,-3.016617601228851,1.465053893652037,-0.08408669382333755,0.001395136932842433,0.2911964356899261,-0.03350722789764404,-0.03822410106658936,9.179115295410156e-05,XArbitraryCorrectedZVertical,-0.5151955485343933,0.5356550216674805,0.4760419428348541,-0.4701379537582397,-0.01315413229167461,-0.9944144487380981,0.1047055125236511,-1.543304443359375,-58.04167938232422,-12.72035980224609,2
2017-12-05 15:37:32.612 -0800,139,BF2B89E4-20AD-4334-A98B-17808832B17C,1512517047.465873,49.27716982572304,-122.9074165639976,343.0205,-1,-1,10,65,-9999,105585.3208625,-0.0443572998046875,-0.9786376953125,0.0697479248046875,105585.3133035,-0.05881458109385494,-0.02766811319705122,0.1247328780793872,105585.3045535,1.380335268202275,-2.976715976888684,1.467229265099366,-0.07350011169910431,0.09373710304498672,0.1771595031023026,-0.01900073885917664,-0.01947271823883057,-0.00924384593963623,XArbitraryCorrectedZVertical,-0.5138006210327148,0.5357117056846619,0.4756314158439636,-0.472010999917984,-0.01696420274674892,-0.9946417212486267,0.1019562184810638,-1.939994812011719,-57.90200805664062,-12.97325897216797,2
2017-12-05 15:37:32.642 -0800,140,BF2B89E4-20AD-4334-A98B-17808832B17C,1512517047.465873,49.27716982572304,-122.9074165639976,343.0205,-1,-1,10,65,-9999,105585.3510375,0.067718505859375,-1.007217407226562,0.117889404296875,105585.3434795,-0.08713090770023145,0.01282312064873153,0.2726371218552269,105585.3397295,1.33648268565233,-2.934644204900124,1.468698236815579,-0.0716114416718483,-0.00732077844440937,0.2139920592308044,0.03627064824104309,0.002040505409240723,0.01365792751312256,XArbitraryCorrectedZVertical,-0.5117815136909485,0.536597728729248,0.4756587147712708,-0.4731684625148773,-0.02093557082116604,-0.9947925209999084,0.09971488267183304,-2.260288238525391,-58.07308959960938,-12.8686580657959,2
2017-12-05 15:37:32.687 -0800,141,BF2B89E4-20AD-4334-A98B-17808832B17C,1512517047.465873,49.27716982572304,-122.9074165639976,343.0205,-1,-1,10,65,-9999,105585.3812125,-0.054046630859375,-1.001251220703125,0.093597412109375,105585.3736545,-0.09159463200331326,-0.0728891211388147,0.338382047053795,105585.3397295,1.33648268565233,-2.934644204900124,1.468698236815579,-0.0716114416718483,-0.00732077844440937,0.2139920592308044,0.03627064824104309,0.002040505409240723,0.01365792751312256,XArbitraryCorrectedZVertical,-0.5117815136909485,0.536597728729248,0.4756587147712708,-0.4731684625148773,-0.02093557082116604,-0.9947925209999084,0.09971488267183304,-2.260288238525391,-58.07308959960938,-12.8686580657959,2
2017-12-05 15:37:32.703 -0800,142,BF2B89E4-20AD-4334-A98B-17808832B17C,1512517047.465873,49.27716982572304,-122.9074165639976,343.0205,-1,-1,10,65,-9999,105585.4113885,-0.0740203857421875,-1.00335693359375,0.10302734375,105585.4038295,-0.06861687811810958,-0.08595405681452543,0.2257700140436854,105585.3749625,1.205661387005641,-2.80686766226831,1.467974008164898,-0.09074150770902634,-0.07553495466709137,0.3547744452953339,-0.007261544466018677,-0.01626789569854736,0.009133458137512207,XArbitraryCorrectedZVertical,-0.5070181488990784,0.5398056507110596,0.473932683467865,-0.4763689041137695,-0.03370830789208412,-0.9947184324264526,0.09691508859395981,-2.934288024902344,-57.94554138183594,-13.17775917053223,2
2017-12-05 15:37:32.733 -0800,143,BF2B89E4-20AD-4334-A98B-17808832B17C,1512517047.465873,49.27716982572304,-122.9074165639976,343.0205,-1,-1,10,65,-9999,105585.4415635,-0.1603240966796875,-1.013641357421875,0.06378173828125,105585.4340045,-0.04940696454315003,-0.1088401979582304,-0.03042608282193728,105585.4101385,1.103040702075296,-2.708991991786156,1.466920173710472,-0.06575074046850204,-0.07650971412658691,0.2346016019582748,-0.04631122946739197,-0.006687283515930176,-0.004187345504760742,XArbitraryCorrectedZVertical,-0.5025491118431091,0.5426768064498901,0.4733655154705048,-0.4784017503261566,-0.04345623031258583,-0.9946097135543823,0.09410744905471802,-3.536506652832031,-57.77219390869141,-13.16275215148926,2
2017-12-05 15:37:32.763 -0800,144,BF2B89E4-20AD-4334-A98B-17808832B17C,1512517047.465873,49.27716982572304,-122.9074165639976,343.0205,-1,-1,10,65,-9999,105585.4717385,0.04266357421875,-0.96875,0.1061553955078125,105585.4641805,-0.06237149904576476,-0.04629266396441137,0.01548441752604771,105585.4453715,1.101259047663693,-2.710759963957738,1.468510413427869,-0.03386889025568962,-0.1136214062571526,-0.06233292445540428,-0.0905991792678833,-0.02034807205200195,-0.02036607265472412,XArbitraryCorrectedZVertical,-0.5014819502830505,0.543033242225647,0.4747880399227142,-0.477706104516983,-0.04262532666325569,-0.9947733283042908,0.09273849427700043,-3.645515441894531,-57.82260131835938,-13.35984325408936,2
2017-12-05 15:37:32.811 -0800,145,BF2B89E4-20AD-4334-A98B-17808832B17C,1512517047.465873,49.27716982572304,-122.9074165639976,343.0205,-1,-1,10,65,-9999,105585.5019135,-0.0079345703125,-0.9134368896484375,0.066619873046875,105585.4943555,-0.08535963925921974,-0.3221077359484298,0.1796075786565789,105585.4805465,1.084131151534636,-2.697076698218632,1.469908208085171,-0.07234911620616913,-0.1335712224245071,0.1030063852667809,0.09019678831100464,0.05054867267608643,0.00060272216796875,XArbitraryCorrectedZVertical,-0.4999396800994873,0.5436035394668579,0.4759387671947479,-0.4775287210941315,-0.04329125583171844,-0.9949151277542114,0.09088898450136185,-3.564701080322266,-57.75672149658203,-13.52103233337402,2
2017-12-05 15:37:32.830 -0800,146,BF2B89E4-20AD-4334-A98B-17808832B17C,1512517047.465873,49.27716982572304,-122.9074165639976,343.0205,-1,-1,10,65,-9999,105585.5320885,-0.0315399169921875,-0.9977569580078125,0.1051483154296875,105585.5245305,-0.07714005887079918,-0.2649850610951022,0.1986401257029392,105585.5157805,0.9946124703085897,-2.619508133847263,1.468410826310613,-0.07479051500558853,-0.3620608747005463,0.1746598482131958,-0.05456668138504028,0.00881648063659668,-0.01613545417785645,XArbitraryCorrectedZVertical,-0.4941268563270569,0.5478279590606689,0.4775000214576721,-0.4771926999092102,-0.05094783753156662,-0.994763195514679,0.08855364471673965,-4.289508819580078,-57.51663970947266,-13.4703254699707,2
2017-12-05 15:37:32.854 -0800,147,BF2B89E4-20AD-4334-A98B-17808832B17C,1512517047.465873,49.27716982572304,-122.9074165639976,343.0205,-1,-1,10,65,-9999,105585.5622645,-0.044830322265625,-1.008651733398438,0.0912933349609375,105585.5547055,-0.09575635383878008,-0.2705787646487047,0.3080885896541437,105585.5509555,0.9114068943126316,-2.546579201919287,1.466227569939689,-0.09194754809141159,-0.2512407302856445,0.3040141761302948,0.04665768146514893,-0.01463288068771362,0.006336808204650879,XArbitraryCorrectedZVertical,-0.4888110756874084,0.5516038537025452,0.4786456227302551,-0.4771701693534851,-0.05848324671387672,-0.9945376515388489,0.0864061564207077,-4.791351318359375,-57.34182739257812,-14.01356029510498,2
2017-12-05 15:37:32.902 -0800,148,BF2B89E4-20AD-4334-A98B-17808832B17C,1512517047.465873,49.27716982572304,-122.9074165639976,343.0205,-1,-1,10,65,-9999,105585.5924395,-0.075286865234375,-1.016494750976562,0.0756072998046875,105585.5848815,-0.09797103860128997,-0.3793465246252848,0.3674813430206548,105585.5509555,0.9114068943126316,-2.546579201919287,1.466227569939689,-0.09194754809141159,-0.2512407302856445,0.3040141761302948,0.04665768146514893,-0.01463288068771362,0.006336808204650879,XArbitraryCorrectedZVertical,-0.4888110756874084,0.5516038537025452,0.4786456227302551,-0.4771701693534851,-0.05848324671387672,-0.9945376515388489,0.0864061564207077,-4.791351318359375,-57.34182739257812,-14.01356029510498,2
2017-12-05 15:37:32.914 -0800,149,BF2B89E4-20AD-4334-A98B-17808832B17C,1512517047.465873,49.27716982572304,-122.9074165639976,343.0205,-1,-1,10,65,-9999,105585.6226145,-0.1692657470703125,-1.06719970703125,0.1052703857421875,105585.6150565,-0.07980614943807751,-0.1870087696420182,0.1919161765827072,105585.5861895,0.8217813900639176,-2.46988348877997,1.463776428540833,-0.09609916061162949,-0.3819849491119385,0.3742209076881409,0.004621267318725586,-0.01641756296157837,-0.006691455841064453,XArbitraryCorrectedZVertical,-0.4824531078338623,0.5559040307998657,0.4805038571357727,-0.476782888174057,-0.06644990295171738,-0.9942788481712341,0.08358058333396912,-5.565830230712891,-57.33072662353516,-13.9063549041748,2
2017-12-05 15:37:32.944 -0800,150,BF2B89E4-20AD-4334-A98B-17808832B17C,1512517047.465873,49.27716982572304,-122.9074165639976,343.0205,-1,-1,10,65,-9999,105585.6527895,-0.1086883544921875,-1.000656127929688,0.0823211669921875,105585.6452315,-0.07111359164005887,-0.01555818708824291,0.007902131586483115,105585.6213645,0.7355393128068485,-2.394512851848784,1.459146524859394,-0.07484765350818634,-0.176457554101944,0.1943023353815079,-0.1098326444625854,-0.08383256196975708,0.02527666091918945,XArbitraryCorrectedZVertical,-0.4765059351921082,0.5601795315742493,0.4812972545623779,-0.4769593179225922,-0.07568369805812836,-0.9937736392021179,0.08171802759170532,-5.991420745849609,-57.37083435058594,-13.87615013122559,2
2017-12-05 15:37:32.974 -0800,151,BF2B89E4-20AD-4334-A98B-17808832B17C,1512517047.465873,49.27716982572304,-122.9074165639976,343.0205,-1,-1,10,65,-9999,105585.6829655,-0.1004638671875,-0.994293212890625,0.0633697509765625,105585.6754065,-0.03789172230575641,-0.0846459120870785,-0.03593509785287519,105585.6565985,0.714586481136785,-2.376309808432927,1.460263299807445,-0.06390257924795151,-0.01489321701228619,0.02425108850002289,0.005636423826217651,-0.001784324645996094,-0.003951430320739746,XArbitraryCorrectedZVertical,-0.475041925907135,0.5604456067085266,0.482373982667923,-0.4770196676254272,-0.07639142125844955,-0.9938974380493164,0.07952821999788284,-6.238674163818359,-57.27088165283203,-13.76077651977539,2
2017-12-05 15:37:33.025 -0800,152,BF2B89E4-20AD-4334-A98B-17808832B17C,1512517047.465873,49.27716982572304,-122.9074165639976,343.0205,-1,-1,10,65,-9999,105585.7131405,-0.114471435546875,-0.9886627197265625,0.0885772705078125,105585.7055815,-0.06251131500299392,0.05261767155334956,-0.1092471289727945,105585.6917735,0.7042296419030518,-2.368284898280961,1.461417247430148,-0.04274141043424606,-0.0422658659517765,-0.03898818418383598,-0.01871103048324585,0.0004937648773193359,0.001967787742614746,XArbitraryCorrectedZVertical,-0.4741039276123047,0.5606005787849426,0.4833617508411407,-0.4767713248729706,-0.07622915506362915,-0.9940240979194641,0.07809508591890335,-6.39697265625,-57.20321655273438,-13.74053287506104,2
2017-12-05 15:37:33.035 -0800,153,BF2B89E4-20AD-4334-A98B-17808832B17C,1512517047.465873,49.27716982572304,-122.9074165639976,343.0205,-1,-1,10,65,-9999,105585.7433155,-0.060455322265625,-0.9880828857421875,0.079681396484375,105585.7357575,-0.0901980703276757,0.1205969889064942,-0.01826635560074449,105585.7270075,0.6960459115264115,-2.358287527588774,1.46311631428582,-0.07467508316040039,0.1256951093673706,-0.03949178755283356,0.0529252290725708,0.003378629684448242,0.01311719417572021,XArbitraryCorrectedZVertical,-0.4742740988731384,0.5595800280570984,0.4835679233074188,-0.4775911271572113,-0.07581342756748199,-0.9942080974578857,0.07613145560026169,-6.183994293212891,-57.13406372070312,-13.79317665100098,2
2017-12-05 15:37:33.065 -0800,154,BF2B89E4-20AD-4334-A98B-17808832B17C,1512517047.465873,49.27716982572304,-122.9074165639976,343.0205,-1,-1,10,65,-9999,105585.7734905,-0.117401123046875,-0.967681884765625,0.0404815673828125,105585.7659325,-0.06882620257978982,-0.05398280792812418,-0.01232537584099572,105585.7621825,0.6742051105402216,-2.333822493007167,1.465070057325217,-0.06929299235343933,-0.008313667960464954,0.01781881228089333,0.02613753080368042,0.02934348583221436,-0.03642618656158447,XArbitraryCorrectedZVertical,-0.4741492867469788,0.5582449436187744,0.4837080240249634,-0.4791329205036163,-0.0762474313378334,-0.9944161772727966,0.07290992885828018,-6.101535797119141,-57.14414215087891,-14.05709171295166,2
2017-12-05 15:37:33.095 -0800,155,BF2B89E4-20AD-4334-A98B-17808832B17C,1512517047.465873,49.27716982572304,-122.9074165639976,343.0205,-1,-1,10,65,-9999,105585.8036655,-0.04736328125,-0.99151611328125,0.1008758544921875,105585.7961075,-0.07656002238537993,-0.01555712182380688,-0.02101447152959725,105585.7621825,0.6742051105402216,-2.333822493007167,1.465070057325217,-0.06929299235343933,-0.008313667960464954,0.01781881228089333,0.02613753080368042,0.02934348583221436,-0.03642618656158447,XArbitraryCorrectedZVertical,-0.4741492867469788,0.5582449436187744,0.4837080240249634,-0.4791329205036163,-0.0762474313378334,-0.9944161772727966,0.07290992885828018,-6.101535797119141,-57.14414215087891,-14.05709171295166,2
2017-12-05 15:37:33.140 -0800,156,BF2B89E4-20AD-4334-A98B-17808832B17C,1512517047.465873,49.27716982572304,-122.9074165639976,343.0205,-1,-1,10,65,-9999,105585.833841,-0.0772705078125,-1.053619384765625,0.0709686279296875,105585.826282,-0.09313180858450699,0.07775844487591559,-0.02344460602429456,105585.7974155,0.6616573793343329,-2.323616977890261,1.466036713451253,-0.06818804144859314,-0.04123980551958084,-0.02171852439641953,0.02123451232910156,0.0186724066734314,0.01354920864105225,XArbitraryCorrectedZVertical,-0.4731536209583282,0.5584461092948914,0.484649270772934,-0.4789319038391113,-0.07628820091485977,-0.9945177435874939,0.07147280871868134,-6.160697937011719,-57.06859588623047,-14.31288909912109,2
2017-12-05 15:37:33.155 -0800,157,BF2B89E4-20AD-4334-A98B-17808832B17C,1512517047.465873,49.27716982572304,-122.9074165639976,343.0205,-1,-1,10,65,-9999,105585.864016,-0.0936279296875,-1.026260375976562,0.039947509765625,105585.856458,-0.03575533447929485,-0.04074210362046822,0.03034352482814482,105585.832591,0.6475711993244241,-2.307938392001279,1.468917061398305,-0.08484597504138947,0.07513225823640823,-0.009231950156390667,-0.01201865077018738,-0.05337250232696533,0.01185917854309082,XArbitraryCorrectedZVertical,-0.4731497466564178,0.5570456385612488,0.4853693544864655,-0.479836493730545,-0.07527688145637512,-0.9948148131370544,0.06834105402231216,-6.325939178466797,-56.98981475830078,-14.35229682922363,2
2017-12-05 15:37:33.186 -0800,158,BF2B89E4-20AD-4334-A98B-17808832B17C,1512517047.465873,49.27716982572304,-122.9074165639976,343.0205,-1,-1,10,65,-9999,105585.894191,-0.1043548583984375,-1.076065063476562,0.0511627197265625,105585.886633,0.04715872395090513,-0.04162840363124659,0.02137772670228406,105585.867824,0.6194367368141586,-2.280448367935225,1.469062999876338,-0.01365841366350651,-0.03345498070120811,0.05624283850193024,-0.008048415184020996,-0.04617071151733398,-0.02440571784973145,XArbitraryCorrectedZVertical,-0.4719941020011902,0.5570443868637085,0.4856818914413452,-0.4806594848632812,-0.07701935619115829,-0.9948296546936035,0.06615376472473145,-6.176563262939453,-57.11444854736328,-14.34624099731445,2
2017-12-05 15:37:33.216 -0800,159,BF2B89E4-20AD-4334-A98B-17808832B17C,1512517047.465873,49.27716982572304,-122.9074165639976,343.0205,-1,-1,10,65,-9999,105585.924366,-0.1213531494140625,-1.05108642578125,0.047210693359375,105585.916808,0.1419403608307162,-0.09408628551919139,-0.02496074363287667,105585.903,0.6259153693509395,-2.288399262894199,1.467074075026626,0.08522182703018188,-0.05734980851411819,0.01620589382946491,-0.02301481366157532,-0.07205522060394287,-0.01755988597869873,XArbitraryCorrectedZVertical,-0.4717638194561005,0.5580968856811523,0.4852767884731293,-0.4800736308097839,-0.07798313349485397,-0.9946256875991821,0.06806647032499313,-6.300205230712891,-56.88326263427734,-14.68392848968506,2
2017-12-05 15:37:33.256 -0800,160,BF2B89E4-20AD-4334-A98B-17808832B17C,1512517047.465873,49.27716982572304,-122.9074165639976,343.0205,-1,-1,10,65,-9999,105585.954542,-0.1559295654296875,-1.0582275390625,0.074737548828125,105585.946983,0.2161003424417167,-0.09606394894468423,-0.09069368460653945,105585.938233,0.6642796386198609,-2.330029512389761,1.463982586951367,0.1992158591747284,-0.1086699217557907,-0.01307661365717649,-0.009692072868347168,-0.06511688232421875,-0.02438926696777344,XArbitraryCorrectedZVertical,-0.4722518920898438,0.5600563883781433,0.4847844243049622,-0.4778039157390594,-0.07731354981660843,-0.9943008422851562,0.07337001711130142,-6.209068298339844,-57.03195190429688,-14.28241539001465,2
2017-12-05 15:37:33.276 -0800,161,BF2B89E4-20AD-4334-A98B-17808832B17C,1512517047.465873,49.27716982572304,-122.9074165639976,343.0205,-1,-1,10,65,-9999,105585.984717,0.0213470458984375,-0.923492431640625,0.102081298828125,105585.977158,0.2246099410728469,-0.1147002176208407,-0.1174597851423808,105585.973408,0.7399561709192122,-2.409016607974037,1.460853274856659,0.2518052160739899,-0.1205450668931007,-0.1601370722055435,-0.03663718700408936,0.0008898377418518066,-0.02492880821228027,XArbitraryCorrectedZVertical,-0.4742668867111206,0.5620035529136658,0.484318345785141,-0.4739789962768555,-0.07336345314979553,-0.9939623475074768,0.08155414462089539,-6.192169189453125,-57.07726287841797,-13.72131824493408,2
2017-12-05 15:37:33.321 -0800,162,BF2B89E4-20AD-4334-A98B-17808832B17C,1512517047.465873,49.27716982572304,-122.9074165639976,343.0205,-1,-1,10,65,-9999,105586.014892,0.0296630859375,-0.953643798828125,0.1783294677734375,105586.007334,0.03262585388234273,-0.04609505741152749,0.09435633005372543,105585.973408,0.7399561709192122,-2.409016607974037,1.460853274856659,0.2518052160739899,-0.1205450668931007,-0.1601370722055435,-0.03663718700408936,0.0008898377418518066,-0.02492880821228027,XArbitraryCorrectedZVertical,-0.4742668867111206,0.5620035529136658,0.484318345785141,-0.4739789962768555,-0.07336345314979553,-0.9939623475074768,0.08155414462089539,-6.192169189453125,-57.07726287841797,-13.72131824493408,2
2017-12-05 15:37:33.337 -0800,163,BF2B89E4-20AD-4334-A98B-17808832B17C,1512517047.465873,49.27716982572304,-122.9074165639976,343.0205,-1,-1,10,65,-9999,105586.045067,-0.1549835205078125,-1.035964965820312,0.102264404296875,105586.037509,0.04208300522932312,0.08246851157982972,0.01877262252396855,105586.008642,0.7681821063608415,-2.443614146434123,1.457746912510108,-0.02606485784053802,-0.4156935811042786,0.05243781208992004,0.05532991886138916,0.03151953220367432,0.07442140579223633,XArbitraryCorrectedZVertical,-0.4738155007362366,0.5645369291305542,0.4847089648246765,-0.4710108637809753,-0.07248081266880035,-0.9936167001724243,0.08640614897012711,-6.149143218994141,-57.34745788574219,-13.17838764190674,2
2017-12-05 15:37:33.409 -0800,164,BF2B89E4-20AD-4334-A98B-17808832B17C,1512517047.465873,49.27716982572304,-122.9074165639976,343.0205,-1,-1,10,65,-9999,105586.075242,-0.04705810546875,-0.9784088134765625,0.07916259765625,105586.067684,0.06253368555615059,0.1671192173568704,-0.04061240767538136,105586.043817,0.7475812833228122,-2.421206115457446,1.454095710833956,0.05023334547877312,0.09412489831447601,0.02328294143080711,-0.09447291493415833,-0.04130196571350098,0.0166391134262085,XArbitraryCorrectedZVertical,-0.4733984470367432,0.5653647780418396,0.4829172790050507,-0.4722759127616882,-0.07679175585508347,-0.9931982159614563,0.08748684078454971,-6.281211853027344,-57.24291229248047,-12.98709487915039,2
