loggingTime(txt),loggingSample(N),identifierForVendor(txt),locationTimestamp_since1970(s),locationLatitude(WGS84),locationLongitude(WGS84),locationAltitude(m),locationSpeed(m/s),locationCourse(°),locationVerticalAccuracy(m),locationHorizontalAccuracy(m),locationFloor(Z),accelerometerTimestamp_sinceReboot(s),accelerometerAccelerationX(G),accelerometerAccelerationY(G),accelerometerAccelerationZ(G),gyroTimestamp_sinceReboot(s),gyroRotationX(rad/s),gyroRotationY(rad/s),gyroRotationZ(rad/s),motionTimestamp_sinceReboot(s),motionYaw(rad),motionRoll(rad),motionPitch(rad),motionRotationRateX(rad/s),motionRotationRateY(rad/s),motionRotationRateZ(rad/s),motionUserAccelerationX(G),motionUserAccelerationY(G),motionUserAccelerationZ(G),motionAttitudeReferenceFrame(txt),motionQuaternionX(R),motionQuaternionY(R),motionQuaternionZ(R),motionQuaternionW(R),motionGravityX(G),motionGravityY(G),motionGravityZ(G),motionMagneticFieldX(µT),motionMagneticFieldY(µT),motionMagneticFieldZ(µT),motionMagneticFieldCalibrationAccuracy(Z)
2017-12-05 15:37:31.177 -0800,1,C4D50155-580C-4885-BACB-A13DEF47355A,1512517045.454944,49.27717028130198,-122.9074832313209,342.6433,-1,-1,10,65,-9999,156842.69422025,-0.117706298828125,-0.980743408203125,-0.09619140625,156842.67218625,-0.06540563847569204,-0.1270631440332066,-0.07383454332579283,156842.68317325,-0.757595261367857,-0.8405087820745248,1.404404495248804,0.07145890593528748,-0.06134878471493721,-0.02749391086399555,-0.01147851347923279,0.05051982402801514,0.03072309494018555,XArbitraryCorrectedZVertical,0.4327091872692108,-0.5074816346168518,-0.5026125311851501,0.5500871539115906,-0.1233481392264366,-0.9861887693405151,-0.1104502975940704,-6.917261123657227,-52.87722396850586,-20.1790771484375,2
2017-12-05 15:37:31.206 -0800,2,C4D50155-580C-4885-BACB-A13DEF47355A,1512517045.454944,49.27717028130198,-122.9074832313209,342.6433,-1,-1,10,65,-9999,156842.72428025,-0.1283721923828125,-0.9998016357421875,-0.120025634765625,156842.70224625,0.3771214535345236,0.3216997396694297,0.00880973688598212,156842.71826825,-0.7004115301254361,-0.8886247020864391,1.411574202455279,0.3590200543403625,0.4684199094772339,0.03546404838562012,-0.01827409863471985,-0.0356287956237793,-0.02791213989257812,XArbitraryCorrectedZVertical,0.4378632307052612,-0.5082448124885559,-0.4976802468299866,0.549788236618042,-0.1230222806334496,-0.9873509407043457,-0.09992600232362747,-6.646945953369141,-53.12178421020508,-19.50079345703125,2
2017-12-05 15:37:31.216 -0800,3,C4D50155-580C-4885-BACB-A13DEF47355A,1512517045.454944,49.27717028130198,-122.9074832313209,342.6433,-1,-1,10,65,-9999,156842.75434025,-0.09710693359375,-0.9633331298828125,-0.114471435546875,156842.73230625,0.2594060049274952,0.5086784155911299,0.02303794132583946,156842.75330225,-0.6534260624628137,-0.9190407850996993,1.416259538579207,0.1188877001404762,0.3088034987449646,-0.005518481135368347,0.02568826079368591,0.0250091552734375,-0.02155429124832153,XArbitraryCorrectedZVertical,0.4439882636070251,-0.5061717629432678,-0.4917220771312714,0.5521444082260132,-0.1223221570253372,-0.9880829453468323,-0.09332913905382156,-6.553667068481445,-53.38120269775391,-19.42593383789062,2
2017-12-05 15:37:31.246 -0800,4,C4D50155-580C-4885-BACB-A13DEF47355A,1512517045.454944,49.27717028130198,-122.9074832313209,342.6433,-1,-1,10,65,-9999,156842.78439925,-0.1204986572265625,-0.929840087890625,-0.095916748046875,156842.76236625,-0.03145912300877902,0.1178368887527361,0.003956924747639732,156842.75330225,-0.6534260624628137,-0.9190407850996993,1.416259538579207,0.1188877001404762,0.3088034987449646,-0.005518481135368347,0.02568826079368591,0.0250091552734375,-0.02155429124832153,XArbitraryCorrectedZVertical,0.4439882636070251,-0.5061717629432678,-0.4917220771312714,0.5521444082260132,-0.1223221570253372,-0.9880829453468323,-0.09332913905382156,-6.553667068481445,-53.38120269775391,-19.42593383789062,2
2017-12-05 15:37:31.286 -0800,5,C4D50155-580C-4885-BACB-A13DEF47355A,1512517045.454944,49.27717028130198,-122.9074832313209,342.6433,-1,-1,10,65,-9999,156842.814471375,-0.1084136962890625,-0.9727630615234375,-0.10137939453125,156842.79242625,-0.1220987454451899,0.01287505228998808,0.08285573520232724,156842.78839725,-0.6563714163986104,-0.9132210201859137,1.41434380138323,-0.1138271391391754,0.003613806329667568,0.08197073638439178,0.003020733594894409,0.05738162994384766,-0.00149846076965332,XArbitraryCorrectedZVertical,0.4439667761325836,-0.5052675008773804,-0.4911189675331116,0.553524911403656,-0.1232752874493599,-0.9877862334251404,-0.09519650787115097,-6.406425476074219,-53.33459854125977,-19.30929565429688,2
2017-12-05 15:37:31.306 -0800,6,C4D50155-580C-4885-BACB-A13DEF47355A,1512517045.454944,49.27717028130198,-122.9074832313209,342.6433,-1,-1,10,65,-9999,156842.844531375,-0.1298370361328125,-1.007110595703125,-0.1126251220703125,156842.822497375,-0.04685752043161717,0.002232261625704418,-0.004051200650228537,156842.823474375,-0.6613077364280479,-0.9078481871665853,1.410909085814783,-0.03568067401647568,-0.0006957207806408405,0.01214904524385929,0.014320969581604,0.00134432315826416,-0.008958101272583008,XArbitraryCorrectedZVertical,0.4427704513072968,-0.5049572587013245,-0.4910759627819061,0.5548027157783508,-0.125435471534729,-0.9872452616691589,-0.09794498980045319,-6.503015518188477,-53.33752059936523,-19.65707397460938,2
2017-12-05 15:37:31.364 -0800,7,C4D50155-580C-4885-BACB-A13DEF47355A,1512517045.454944,49.27717028130198,-122.9074832313209,342.6433,-1,-1,10,65,-9999,156842.874591375,-0.132965087890625,-1.008575439453125,-0.0936279296875,156842.852557375,-0.1087461883717506,-0.1386862442947484,-0.0427581165656582,156842.858569375,-0.6766374693984549,-0.8950311915881132,1.410072212140766,-0.09734409302473068,-0.1521929353475571,-0.04146642610430717,0.00147777795791626,-0.01778638362884521,-0.01296031475067139,XArbitraryCorrectedZVertical,0.4417422413825989,-0.5048099160194397,-0.492442399263382,0.5545451641082764,-0.1248145774006844,-0.9871116876602173,-0.1000614836812019,-6.701129913330078,-53.37422943115234,-19.7569580078125,2
2017-12-05 15:37:31.366 -0800,8,C4D50155-580C-4885-BACB-A13DEF47355A,1512517045.454944,49.27717028130198,-122.9074832313209,342.6433,-1,-1,10,65,-9999,156842.904651375,-0.1243896484375,-1.002059936523438,-0.088836669921875,156842.882617375,-0.04606336579455554,-0.1154288584950864,-0.07770305112524194,156842.893603375,-0.6958789580900937,-0.8813677014901834,1.410607937255618,-0.0154907088726759,-0.1024604290723801,-0.06748367100954056,-0.01755210757255554,-0.02188169956207275,0.00738072395324707,XArbitraryCorrectedZVertical,0.4404540956020355,-0.5052621960639954,-0.4947872757911682,0.5530685782432556,-0.1230271235108376,-0.9871972799301147,-0.1014206036925316,-6.695083618164062,-53.32507705688477,-19.8773193359375,2
2017-12-05 15:37:31.396 -0800,9,C4D50155-580C-4885-BACB-A13DEF47355A,1512517045.454944,49.27717028130198,-122.9074832313209,342.6433,-1,-1,10,65,-9999,156842.934711375,-0.1109161376953125,-0.9814453125,-0.098236083984375,156842.912677375,-0.001657817778574326,-0.07313732775241008,-0.04487479700005318,156842.928699375,-0.7019760258823857,-0.8784178655494486,1.411932467799998,-0.02457795105874538,-0.1141820698976517,-0.04109876975417137,0.008574455976486206,0.008892059326171875,0.007028341293334961,XArbitraryCorrectedZVertical,0.4401346445083618,-0.5057750344276428,-0.4958921074867249,0.551862895488739,-0.1217183545231819,-0.9874076247215271,-0.1009462177753448,-6.507778167724609,-53.33182525634766,-19.76559448242188,2
2017-12-05 15:37:31.451 -0800,10,C4D50155-580C-4885-BACB-A13DEF47355A,1512517045.454944,49.27717028130198,-122.9074832313209,342.6433,-1,-1,10,65,-9999,156842.964770375,-0.1136474609375,-0.9928436279296875,-0.0879364013671875,156842.942737375,-0.1037357170968755,-0.1726615219014343,-0.03530286341009038,156842.963763375,-0.7215010562637333,-0.8657107304642053,1.410921949647949,-0.1053581237792969,-0.252979040145874,-0.04079554602503777,0.00686761736869812,-0.005458950996398926,0.01450896263122559,XArbitraryCorrectedZVertical,0.4379768073558807,-0.5065671801567078,-0.4984348118305206,0.5505609512329102,-0.1211864426732063,-0.9872472882270813,-0.1031320169568062,-6.72490119934082,-53.30281066894531,-19.81204223632812,2
2017-12-05 15:37:31.456 -0800,11,C4D50155-580C-4885-BACB-A13DEF47355A,1512517045.454944,49.27717028130198,-122.9074832313209,342.6433,-1,-1,10,65,-9999,156842.994830375,-0.121551513671875,-0.9984588623046875,-0.087921142578125,156842.972796375,-0.08286425731781549,-0.2989528818507359,-0.0458569708100744,156842.963763375,-0.7215010562637333,-0.8657107304642053,1.410921949647949,-0.1053581237792969,-0.252979040145874,-0.04079554602503777,0.00686761736869812,-0.005458950996398926,0.01450896263122559,XArbitraryCorrectedZVertical,0.4379768073558807,-0.5065671801567078,-0.4984348118305206,0.5505609512329102,-0.1211864426732063,-0.9872472882270813,-0.1031320169568062,-6.72490119934082,-53.30281066894531,-19.81204223632812,2
2017-12-05 15:37:31.486 -0800,12,C4D50155-580C-4885-BACB-A13DEF47355A,1512517051.459925,49.27717064685332,-122.907484071402,342.8033,-1,-1,10,65,-9999,156843.024920375,-0.09979248046875,-0.98309326171875,-0.0968017578125,156843.002856375,0.08469198477393688,-0.2802311257035878,-0.04271497335599891,156842.998858375,-0.7320378127701884,-0.8651307929488607,1.411192048792956,0.05137710645794868,-0.2469628006219864,-0.03362809121608734,-0.001223564147949219,-0.01100075244903564,0.01487874984741211,XArbitraryCorrectedZVertical,0.4355474412441254,-0.5087081789970398,-0.5012144446372986,0.5479844808578491,-0.1209230348467827,-0.9872902631759644,-0.1030288264155388,-6.737035751342773,-53.43427276611328,-19.89068603515625,2
2017-12-05 15:37:31.524 -0800,13,C4D50155-580C-4885-BACB-A13DEF47355A,1512517051.459925,49.27717064685332,-122.907484071402,342.8033,-1,-1,10,65,-9999,156843.054980375,-0.1117706298828125,-1.011795043945312,-0.0821685791015625,156843.032916375,0.03874313490625474,-0.7087750240942335,-0.04672516132544023,156843.033893375,-0.7211655823537432,-0.8907001118506492,1.41417326195774,0.06733939796686172,-0.6512520313262939,-0.03218211233615875,0.03599032759666443,0.01351642608642578,0.00349128246307373,XArbitraryCorrectedZVertical,0.4330054223537445,-0.5133042931556702,-0.5039412379264832,0.5431909561157227,-0.1212259232997894,-0.9877596497535706,-0.09805001318454742,-6.913089752197266,-53.34597778320312,-19.64358520507812,2
2017-12-05 15:37:31.546 -0800,14,C4D50155-580C-4885-BACB-A13DEF47355A,1512517051.459925,49.27717064685332,-122.907484071402,342.8033,-1,-1,10,65,-9999,156843.085040375,-0.11474609375,-0.9925384521484375,-0.0796051025390625,156843.062976375,0.186902509514524,-0.6378867358823953,-0.1299606632992128,156843.068988375,-0.7197174387166139,-0.9182607455700476,1.418258515245382,0.2165181040763855,-0.6291637420654297,-0.1261533796787262,0.001106023788452148,-0.02526795864105225,0.02198433876037598,XArbitraryCorrectedZVertical,0.4279058277606964,-0.5203713178634644,-0.5096965432167053,0.535077691078186,-0.1206739246845245,-0.9883886575698853,-0.09222058951854706,-7.488879203796387,-53.48541259765625,-19.24945068359375,2
2017-12-05 15:37:31.607 -0800,15,C4D50155-580C-4885-BACB-A13DEF47355A,1512517051.459925,49.27717064685332,-122.907484071402,342.8033,-1,-1,10,65,-9999,156843.115100375,-0.13336181640625,-0.982086181640625,-0.1129913330078125,156843.093036375,0.3221218507022072,-0.5163299437190366,-0.02613413240916558,156843.104053375,-0.6642121630417126,-0.9910564962746911,1.426933379352967,0.278228223323822,-0.4947904348373413,0.03058548830449581,0.005241185426712036,0.0205533504486084,-0.01709896326065063,XArbitraryCorrectedZVertical,0.427059143781662,-0.5276095271110535,-0.5110815763473511,0.5272882580757141,-0.1198804974555969,-0.9896695613861084,-0.07849735021591187,-7.656805992126465,-53.69719696044922,-18.250732421875,2
2017-12-05 15:37:31.609 -0800,16,C4D50155-580C-4885-BACB-A13DEF47355A,1512517051.459925,49.27717064685332,-122.907484071402,342.8033,-1,-1,10,65,-9999,156843.145160375,-0.1288909912109375,-1.031600952148438,-0.06903076171875,156843.123096375,0.01701147409509915,-0.08806967198448437,-0.02116840224060383,156843.139148375,-0.6482812669269339,-1.012656297512796,1.428530896772876,0.0192450862377882,0.1171314120292664,-0.09290014207363129,-0.01474350690841675,-0.05693191289901733,0.001076936721801758,XArbitraryCorrectedZVertical,0.4263302981853485,-0.5298270583152771,-0.5116255283355713,0.5251224637031555,-0.1202052533626556,-0.9898973107337952,-0.07505153119564056,-7.822778701782227,-53.55599212646484,-17.97637939453125,2
2017-12-05 15:37:31.636 -0800,17,C4D50155-580C-4885-BACB-A13DEF47355A,1512517051.459925,49.27717064685332,-122.907484071402,342.8033,-1,-1,10,65,-9999,156843.175220375,-0.1097412109375,-0.998199462890625,-0.0881805419921875,156843.153155375,-0.03990160998043921,0.3727413524896703,-0.1519210896480062,156843.174182375,-0.67256892072851,-0.9763152980601807,1.43221382955055,-0.04531053081154823,0.4462577998638153,-0.1400953233242035,0.004938423633575439,-0.00755774974822998,-0.012412428855896,XArbitraryCorrectedZVertical,0.4305525422096252,-0.5253210663795471,-0.5105159282684326,0.5272797346115112,-0.1143744438886642,-0.9904128313064575,-0.07732456922531128,-7.631505012512207,-53.68779754638672,-18.04598999023438,2
2017-12-05 15:37:31.689 -0800,18,C4D50155-580C-4885-BACB-A13DEF47355A,1512517051.459925,49.27717064685332,-122.907484071402,342.8033,-1,-1,10,65,-9999,156843.205279375,-0.13397216796875,-1.084030151367188,-0.0617828369140625,156843.183215375,0.03024578681613892,0.4383190311717815,-0.1196244024763972,156843.174182375,-0.67256892072851,-0.9763152980601807,1.43221382955055,-0.04531053081154823,0.4462577998638153,-0.1400953233242035,0.004938423633575439,-0.00755774974822998,-0.012412428855896,XArbitraryCorrectedZVertical,0.4305525422096252,-0.5253210663795471,-0.5105159282684326,0.5272797346115112,-0.1143744438886642,-0.9904128313064575,-0.07732456922531128,-7.631505012512207,-53.68779754638672,-18.04598999023438,2
2017-12-05 15:37:31.697 -0800,19,C4D50155-580C-4885-BACB-A13DEF47355A,1512517051.459925,49.27717064685332,-122.907484071402,342.8033,-1,-1,10,65,-9999,156843.235339375,-0.0997467041015625,-1.001480102539062,-0.099456787109375,156843.213275375,0.0007632619684167097,0.258119431804878,-0.1897326508049512,156843.209277375,-0.6840375386369989,-0.9525453532881963,1.437125670679253,0.05463403090834618,0.2360280752182007,-0.1802297383546829,-0.02404779195785522,-0.09258455038070679,0.01765871047973633,XArbitraryCorrectedZVertical,0.4354037940502167,-0.5213677287101746,-0.508733332157135,0.5289401412010193,-0.1085357964038849,-0.9910793900489807,-0.07719845324754715,-6.911727905273438,-53.71464157104492,-18.30087280273438,2
2017-12-05 15:37:31.727 -0800,20,C4D50155-580C-4885-BACB-A13DEF47355A,1512517051.459925,49.27717064685332,-122.907484071402,342.8033,-1,-1,10,65,-9999,156843.265399375,-0.0959625244140625,-0.9461517333984375,-0.087066650390625,156843.243365375,-0.02269066511969313,0.3302916299782433,-0.1708487081474173,156843.244342375,-0.7110700193332944,-0.9160457063759808,1.44209403276931,-0.004893908277153969,0.3167780041694641,-0.1694371402263641,0.006063491106033325,0.0166010856628418,-0.0100749135017395,XArbitraryCorrectedZVertical,0.4394819736480713,-0.517496645450592,-0.5081985592842102,0.52988201379776,-0.1017361208796501,-0.9917292594909668,-0.07810563594102859,-6.409952163696289,-53.85445404052734,-18.38812255859375,2
2017-12-05 15:37:31.776 -0800,21,C4D50155-580C-4885-BACB-A13DEF47355A,1512517051.459925,49.27717064685332,-122.907484071402,342.8033,-1,-1,10,65,-9999,156843.295459375,-0.1181640625,-0.939239501953125,-0.0732574462890625,156843.273425375,-0.02125548760824942,-0.08267037919045772,-0.0271802220853487,156843.279437375,-0.7340088220637359,-0.8883432570965212,1.444647173717569,-0.006910443305969238,-0.1036407947540283,-0.01415617763996124,-0.009108662605285645,0.03869986534118652,0.008767962455749512,XArbitraryCorrectedZVertical,0.4415365159511566,-0.5151683688163757,-0.5083012580871582,0.530343770980835,-0.09756553918123245,-0.992053747177124,-0.0792941153049469,-5.880878448486328,-53.75739288330078,-18.47265625,2
2017-12-05 15:37:31.787 -0800,22,C4D50155-580C-4885-BACB-A13DEF47355A,1512517051.459925,49.27717064685332,-122.907484071402,342.8033,-1,-1,10,65,-9999,156843.325519375,-0.084503173828125,-0.944244384765625,-0.139068603515625,156843.303485375,0.04946635303545879,0.05286401395418189,0.04996356521097658,156843.314471375,-0.7155484538294637,-0.9088742698326143,1.443965689924206,0.04911061376333237,0.1624883562326431,0.03112717531621456,0.009877264499664307,0.04554134607315063,-0.03589677810668945,XArbitraryCorrectedZVertical,0.4408320188522339,-0.5165484547615051,-0.5079048871994019,0.5299669504165649,-0.09970574826002121,-0.9919677972793579,-0.07768964767456055,-5.957571029663086,-53.80680847167969,-18.20843505859375,2
2017-12-05 15:37:31.857 -0800,23,C4D50155-580C-4885-BACB-A13DEF47355A,1512517051.459925,49.27717064685332,-122.907484071402,342.8033,-1,-1,10,65,-9999,156843.355578375,-0.1106414794921875,-0.9900054931640625,-0.067047119140625,156843.333545375,-0.1096735010633162,0.5413218463366671,0.02693041757509927,156843.349566375,-0.7230498416713484,-0.8859704014064239,1.442383023019847,-0.04148170351982117,0.499071478843689,0.007931693457067013,-0.005680829286575317,0.07674252986907959,-0.04500007629394531,XArbitraryCorrectedZVertical,0.4441207051277161,-0.5121365189552307,-0.5047581791877747,0.5344899892807007,-0.09911657124757767,-0.9917663335800171,-0.08094596862792969,-5.996793746948242,-53.82885360717773,-18.43276977539062,2
2017-12-05 15:37:31.859 -0800,24,C4D50155-580C-4885-BACB-A13DEF47355A,1512517051.459925,49.27717064685332,-122.907484071402,342.8033,-1,-1,10,65,-9999,156843.385638375,-0.1431732177734375,-1.030120849609375,-0.025482177734375,156843.363605375,0.2870349696565223,0.01862588234790518,-0.1063192496703614,156843.384601375,-0.6708564557683081,-0.937707479390741,1.450366977248323,0.4744913578033447,-0.3677837550640106,-0.04205220192670822,-0.04487079381942749,-0.04012548923492432,0.04623979330062866,XArbitraryCorrectedZVertical,0.4474034011363983,-0.5141207575798035,-0.5028083920478821,0.5316775441169739,-0.09677655249834061,-0.9927571415901184,-0.07102008908987045,-5.671981811523438,-53.9987907409668,-18.19635009765625,2
2017-12-05 15:37:31.877 -0800,25,C4D50155-580C-4885-BACB-A13DEF47355A,1512517051.459925,49.27717064685332,-122.907484071402,342.8033,-1,-1,10,65,-9999,156843.415698375,-0.1550445556640625,-0.9641876220703125,0.07861328125,156843.393664375,0.5460108740679697,-0.5393692166254211,0.1427933713278686,156843.384601375,-0.6708564557683081,-0.937707479390741,1.450366977248323,0.4744913578033447,-0.3677837550640106,-0.04205220192670822,-0.04487079381942749,-0.04012548923492432,0.04623979330062866,XArbitraryCorrectedZVertical,0.4474034011363983,-0.5141207575798035,-0.5028083920478821,0.5316775441169739,-0.09677655249834061,-0.9927571415901184,-0.07102008908987045,-5.671981811523438,-53.9987907409668,-18.19635009765625,2
2017-12-05 15:37:31.933 -0800,26,C4D50155-580C-4885-BACB-A13DEF47355A,1512517051.459925,49.27717064685332,-122.907484071402,342.8033,-1,-1,10,65,-9999,156843.445758375,-0.121490478515625,-1.040359497070312,-0.0204315185546875,156843.423724375,0.478802009218185,-0.1371786288016545,0.197824399461048,156843.419726375,-0.4967097351209096,-1.127937040288413,1.454872023922011,0.5943112969398499,-0.3812576532363892,0.269614577293396,-0.0522199273109436,0.02957367897033691,0.1259056329727173,XArbitraryCorrectedZVertical,0.4465985596179962,-0.5251567959785461,-0.4997497200965881,0.5244020223617554,-0.1044115647673607,-0.9932882785797119,-0.04952013120055199,-6.414802551269531,-54.19353485107422,-16.83331298828125,2
2017-12-05 15:37:31.937 -0800,27,C4D50155-580C-4885-BACB-A13DEF47355A,1512517051.459925,49.27717064685332,-122.907484071402,342.8033,-1,-1,10,65,-9999,156843.475818375,-0.13446044921875,-0.9640350341796875,-0.0229949951171875,156843.453784375,-0.1167838748577187,0.3017635820652055,-0.1130996578057031,156843.454761375,-0.4129192396900764,-1.207346316819867,1.455492748960308,-0.04193082079291344,0.323055237531662,-0.07226774096488953,0.01068991422653198,-0.02401983737945557,0.01186919212341309,XArbitraryCorrectedZVertical,0.4490969181060791,-0.5271446704864502,-0.4956503212451935,0.5241641998291016,-0.1074306666851044,-0.9933599233627319,-0.04086090996861458,-6.624563217163086,-54.41159439086914,-16.22305297851562,2
2017-12-05 15:37:31.967 -0800,28,C4D50155-580C-4885-BACB-A13DEF47355A,1512517051.459925,49.27717064685332,-122.907484071402,342.8033,-1,-1,10,65,-9999,156843.505878375,-0.1387786865234375,-0.9679412841796875,-0.0680389404296875,156843.483844375,-0.3436527091671708,0.1089334085963831,0.03432495065781328,156843.489856375,-0.4921941946244621,-1.122850815805247,1.454003322584954,-0.3304062187671661,0.1017863228917122,0.05162395536899567,-0.06182557344436646,0.05083513259887695,0.03306055068969727,XArbitraryCorrectedZVertical,0.4487459361553192,-0.522890567779541,-0.4973151087760925,0.5271409153938293,-0.1049377545714378,-0.993187427520752,-0.05042507871985435,-6.240425109863281,-54.23401641845703,-16.66799926757812,2
2017-12-05 15:37:32.003 -0800,29,C4D50155-580C-4885-BACB-A13DEF47355A,1512517051.459925,49.27717064685332,-122.907484071402,342.8033,-1,-1,10,65,-9999,156843.535937375,-0.06793212890625,-0.998870849609375,-0.20721435546875,156843.513904375,0.5360932621685146,0.7697955015190011,0.2436121280827803,156843.524890375,-0.4149633303779137,-1.183004757357585,1.449461684593151,0.5351266264915466,0.7881743907928467,0.2309277951717377,0.04071402549743652,-0.01287567615509033,-0.09184145927429199,XArbitraryCorrectedZVertical,0.4525023698806763,-0.5218962430953979,-0.4897976517677307,0.5319318771362305,-0.1119572967290878,-0.9926480054855347,-0.04573183506727219,-6.28059196472168,-54.17688369750977,-16.89251708984375,2
2017-12-05 15:37:32.027 -0800,30,C4D50155-580C-4885-BACB-A13DEF47355A,1512517051.459925,49.27717064685332,-122.907484071402,342.8033,-1,-1,10,65,-9999,156843.565997375,-0.0846710205078125,-0.9696044921875,-0.086639404296875,156843.543963375,-0.09075706784048333,0.2344106402004475,0.1786224753693586,156843.559985375,-0.3767864620571952,-1.20868509982209,1.444075313388427,-0.1638007760047913,-0.05269661545753479,0.2223658114671707,0.04999691247940063,0.0254899263381958,-0.1165332794189453,XArbitraryCorrectedZVertical,0.4543652534484863,-0.5207530856132507,-0.484597772359848,0.5362096428871155,-0.1180968731641769,-0.9919816255569458,-0.04473688080906868,-6.501504898071289,-54.32780456542969,-16.62750244140625,2
2017-12-05 15:37:32.076 -0800,31,C4D50155-580C-4885-BACB-A13DEF47355A,1512517051.959201,49.27715547078363,-122.9074694934538,342.8459,-1,-1,10,65,-9999,156843.596057375,-0.1731109619140625,-0.9650115966796875,-0.00787353515625,156843.574023375,0.02712376307023903,-0.3146362375102125,0.3326229611964987,156843.595050375,-0.33327378042949,-1.263132429432455,1.432004576005327,0.2006640881299973,-0.4795153737068176,0.5705239176750183,-0.04068654775619507,0.02222895622253418,0.0343320369720459,XArbitraryCorrectedZVertical,0.4485406577587128,-0.5271397829055786,-0.4831987619400024,0.5361356735229492,-0.1317683011293411,-0.9903838634490967,-0.04186985641717911,-7.591329574584961,-54.10644149780273,-16.3046875,2
2017-12-05 15:37:32.087 -0800,32,C4D50155-580C-4885-BACB-A13DEF47355A,1512517051.959201,49.27715547078363,-122.9074694934538,342.8459,-1,-1,10,65,-9999,156843.626147375,-0.1630096435546875,-0.999847412109375,-0.0220489501953125,156843.604083375,0.2281104000096471,-0.484450307574134,0.7634617054984656,156843.595050375,-0.33327378042949,-1.263132429432455,1.432004576005327,0.2006640881299973,-0.4795153737068176,0.5705239176750183,-0.04068654775619507,0.02222895622253418,0.0343320369720459,XArbitraryCorrectedZVertical,0.4485406577587128,-0.5271397829055786,-0.4831987619400024,0.5361356735229492,-0.1317683011293411,-0.9903838634490967,-0.04186985641717911,-7.591329574584961,-54.10644149780273,-16.3046875,2
2017-12-05 15:37:32.118 -0800,33,C4D50155-580C-4885-BACB-A13DEF47355A,1512517051.959201,49.27715547078363,-122.9074694934538,342.8459,-1,-1,10,65,-9999,156843.656207375,-0.131591796875,-1.062042236328125,-0.0126190185546875,156843.634143375,0.2059017670472583,-0.2849129628999472,0.7528974780863393,156843.630145375,-0.2359448742313633,-1.375493576944742,1.406915034807987,0.2488243281841278,-0.3750387132167816,0.8683879375457764,-0.00423857569694519,-0.01057565212249756,0.007370471954345703,XArbitraryCorrectedZVertical,0.4393593370914459,-0.5395736694335938,-0.4771577417850494,0.5367792844772339,-0.1599765121936798,-0.9866014719009399,-0.03164725750684738,-8.581645965576172,-54.11178588867188,-16.05465698242188,2
2017-12-05 15:37:32.150 -0800,34,C4D50155-580C-4885-BACB-A13DEF47355A,1512517051.959201,49.27715547078363,-122.9074694934538,342.8459,-1,-1,10,65,-9999,156843.686267375,-0.15142822265625,-1.005630493164062,-0.047332763671875,156843.664203375,0.006263222251648352,-0.1744711398621431,0.2910984208477652,156843.665179375,-0.1890534475975724,-1.429989772682564,1.387990929063424,0.04327880591154099,-0.1891802549362183,0.3470999598503113,0.05384218692779541,-0.06147754192352295,0.00482785701751709,XArbitraryCorrectedZVertical,0.4332449734210968,-0.5473089218139648,-0.4722824096679688,0.5382276177406311,-0.1799255907535553,-0.9833375811576843,-0.02550347335636616,-10.68061065673828,-53.98686981201172,-15.52169799804688,2
2017-12-05 15:37:32.177 -0800,35,C4D50155-580C-4885-BACB-A13DEF47355A,1512517051.959201,49.27715547078363,-122.9074694934538,342.8459,-1,-1,10,65,-9999,156843.716327375,-0.1795654296875,-1.016921997070312,-0.040283203125,156843.694263375,-0.01469692079171128,0.1144221836030365,0.1297534693664046,156843.700274375,-0.186891461615398,-1.433772838546709,1.381356517489424,0.003161252476274967,0.1168249920010567,0.1322687715291977,0.02063366770744324,-0.02207100391387939,-0.02195501327514648,XArbitraryCorrectedZVertical,0.430897057056427,-0.5490637421607971,-0.4709976017475128,0.5394495725631714,-0.1864814460277557,-0.9821099042892456,-0.02571346610784531,-10.98733139038086,-53.86181640625,-15.16998291015625,2
2017-12-05 15:37:32.207 -0800,36,C4D50155-580C-4885-BACB-A13DEF47355A,1512517051.959201,49.27715547078363,-122.9074694934538,342.8459,-1,-1,10,65,-9999,156843.746387375,-0.174530029296875,-1.011581420898438,-0.0703277587890625,156843.724322375,0.1853323097358133,0.2933402698533939,0.09772256567158558,156843.735339375,-0.1597375793502342,-1.451451484387729,1.378430735766672,0.2214103937149048,0.2309321761131287,0.133387953042984,-0.00292736291885376,-0.03664898872375488,-0.03405332565307617,XArbitraryCorrectedZVertical,0.4333063364028931,-0.5485144257545471,-0.4667944014072418,0.5417273640632629,-0.189760610461235,-0.9815547466278076,-0.02275508642196655,-11.22198963165283,-53.77082824707031,-14.85540771484375,2
2017-12-05 15:37:32.238 -0800,37,C4D50155-580C-4885-BACB-A13DEF47355A,1512517051.959201,49.27715547078363,-122.9074694934538,342.8459,-1,-1,10,65,-9999,156843.776446375,-0.2045440673828125,-1.021728515625,-0.0234832763671875,156843.754382375,0.1568745692755536,-0.1014416701338812,0.1919606513729115,156843.770434375,-0.1204603631479002,-1.491041202108231,1.372637948259869,0.215576633810997,-0.1129721477627754,0.2302946597337723,0.01524028182029724,-0.02625250816345215,-0.02867782115936279,XArbitraryCorrectedZVertical,0.4331642389297485,-0.5518414378166199,-0.463329404592514,0.5414367318153381,-0.196178987622261,-0.9804307818412781,-0.01567954011261463,-11.73390769958496,-53.97845840454102,-15.10809326171875,2
2017-12-05 15:37:32.268 -0800,38,C4D50155-580C-4885-BACB-A13DEF47355A,1512517051.959201,49.27715547078363,-122.9074694934538,342.8459,-1,-1,10,65,-9999,156843.806497625,-0.204620361328125,-0.9840850830078125,0.0178070068359375,156843.784442375,0.3151076170231565,-0.09654970952751468,0.2321200553468704,156843.805460625,-0.06314224088456619,-1.550990107235529,1.365515175518594,0.3606394231319427,-0.1174669712781906,0.1765957772731781,0.0003619194030761719,-0.007324397563934326,0.02143096923828125,XArbitraryCorrectedZVertical,0.4331645965576172,-0.5570910573005676,-0.4589909911155701,0.5397534370422363,-0.2037463337182999,-0.9790037274360657,-0.004035972524434328,-12.07898712158203,-54.17695999145508,-14.45745849609375,2
2017-12-05 15:37:32.302 -0800,39,C4D50155-580C-4885-BACB-A13DEF47355A,1512517051.959201,49.27715547078363,-122.9074694934538,342.8459,-1,-1,10,65,-9999,156843.836557625,-0.19976806640625,-0.9501800537109375,0.0074310302734375,156843.814493625,0.2828221151281259,-0.03799798243325057,0.1519008496237216,156843.805460625,-0.06314224088456619,-1.550990107235529,1.365515175518594,0.3606394231319427,-0.1174669712781906,0.1765957772731781,0.0003619194030761719,-0.007324397563934326,0.02143096923828125,XArbitraryCorrectedZVertical,0.4331645965576172,-0.5570910573005676,-0.4589909911155701,0.5397534370422363,-0.2037463337182999,-0.9790037274360657,-0.004035972524434328,-12.07898712158203,-54.17695999145508,-14.45745849609375,2
2017-12-05 15:37:32.328 -0800,40,C4D50155-580C-4885-BACB-A13DEF47355A,1512517051.959201,49.27715547078363,-122.9074694934538,342.8459,-1,-1,10,65,-9999,156843.866617625,-0.20831298828125,-0.9552001953125,0.03717041015625,156843.844583625,0.03931917665003888,-0.08617696339776507,0.09517178997950769,156843.840555625,-0.02246646258394213,-1.59257906733865,1.360439752237527,0.1273051202297211,-0.04895289614796638,0.1224649325013161,0.008371353149414062,0.02690672874450684,0.003723382949829102,XArbitraryCorrectedZVertical,0.4336041808128357,-0.5605897307395935,-0.4556656181812286,0.5385944247245789,-0.2087039798498154,-0.9779565334320068,0.004546863492578268,-12.671706199646,-53.89400482177734,-13.72509765625,2
2017-12-05 15:37:32.358 -0800,41,C4D50155-580C-4885-BACB-A13DEF47355A,1512517051.959201,49.27715547078363,-122.9074694934538,342.8459,-1,-1,10,65,-9999,156843.896677625,-0.2452239990234375,-0.9536895751953125,0.0242919921875,156843.874643625,-0.06914604822670833,-0.0390709700364435,-0.02157906168069405,156843.875619625,-0.02259903664466494,-1.595536686468771,1.358735418434718,-0.04629496484994888,-0.05898325890302658,-0.007327653467655182,-0.01155290007591248,0.02503883838653564,0.02981352806091309,XArbitraryCorrectedZVertical,0.4324255585670471,-0.5617924928665161,-0.4558717608451843,0.538114070892334,-0.2103556841611862,-0.9775992035865784,0.005205337423831224,-12.82859134674072,-54.08672714233398,-13.42770385742188,2
2017-12-05 15:37:32.388 -0800,42,C4D50155-580C-4885-BACB-A13DEF47355A,1512517051.959201,49.27715547078363,-122.9074694934538,342.8459,-1,-1,10,65,-9999,156843.926736625,-0.2147979736328125,-0.991912841796875,0.0078582763671875,156843.904703625,-0.2240187193108493,0.0291360475899029,0.005501558179885691,156843.910715625,-0.04492750397779482,-1.574129795549473,1.358786247337011,-0.2157870978116989,0.02307846769690514,0.006756039801985025,-0.03350964188575745,0.01357489824295044,0.0164344310760498,XArbitraryCorrectedZVertical,0.4310595393180847,-0.5608371496200562,-0.4572766125202179,0.5390142798423767,-0.2103715687990189,-0.9776099324226379,0.0007012696587480605,-12.93106651306152,-54.08466720581055,-13.67050170898438,2
2017-12-05 15:37:32.418 -0800,43,C4D50155-580C-4885-BACB-A13DEF47355A,1512517051.959201,49.27715547078363,-122.9074694934538,342.8459,-1,-1,10,65,-9999,156843.956796625,-0.191314697265625,-0.979949951171875,-0.0130767822265625,156843.934763625,-0.2610188152836472,0.1080697454548704,-0.2119492732506102,156843.945749625,-0.08705485679052227,-1.530776740160017,1.363470168375999,-0.237178236246109,0.1179429814219475,-0.2412091642618179,0.001370996236801147,-0.01222944259643555,0.008584380149841309,XArbitraryCorrectedZVertical,0.4305634200572968,-0.5572238564491272,-0.4605480134487152,0.5403711795806885,-0.2056251764297485,-0.9785848259925842,-0.008233429864048958,-12.62854194641113,-53.75896072387695,-14.01803588867188,2
2017-12-05 15:37:32.448 -0800,44,C4D50155-580C-4885-BACB-A13DEF47355A,1512517051.959201,49.27715547078363,-122.9074694934538,342.8459,-1,-1,10,65,-9999,156843.986856625,-0.2234039306640625,-0.9960784912109375,-0.02203369140625,156843.964822625,-0.1531514700716228,0.06876867830024411,-0.3387359811626666,156843.980844625,-0.1167527994096887,-1.499316331207784,1.373688824408661,-0.07361139357089996,0.001999128609895706,-0.2895156443119049,-0.01065635681152344,-0.008269667625427246,0.008122801780700684,XArbitraryCorrectedZVertical,0.4325801432132721,-0.5530672073364258,-0.4643786251544952,0.5397519469261169,-0.1952762603759766,-0.9806371331214905,-0.01398216746747494,-11.98699855804443,-53.82285308837891,-14.27743530273438,2
2017-12-05 15:37:32.478 -0800,45,C4D50155-580C-4885-BACB-A13DEF47355A,1512517051.959201,49.27715547078363,-122.9074694934538,342.8459,-1,-1,10,65,-9999,156844.016916625,-0.2127532958984375,-0.9723052978515625,-0.003082275390625,156843.994882625,-0.07130001291636442,-0.2023096953689594,-0.1209197640306118,156844.015909625,-0.1253959504590915,-1.497111484208304,1.377471386611326,0.003072869032621384,-0.2012510001659393,-0.006754005793482065,-0.02191391587257385,0.009248673915863037,0.009531140327453613,XArbitraryCorrectedZVertical,0.4318197965621948,-0.5535901188850403,-0.4671713709831238,0.5374093055725098,-0.1915412694215775,-0.9813708662986755,-0.01413928717374802,-11.57465362548828,-53.97875595092773,-14.60055541992188,2
2017-12-05 15:37:32.508 -0800,46,C4D50155-580C-4885-BACB-A13DEF47355A,1512517051.959201,49.27715547078363,-122.9074694934538,342.8459,-1,-1,10,65,-9999,156844.046976625,-0.1935577392578125,-0.9837799072265625,-0.0005035400390625,156844.024942625,0.07122917283136831,-0.145561993597115,0.02861673117733745,156844.015909625,-0.1253959504590915,-1.497111484208304,1.377471386611326,0.003072869032621384,-0.2012510001659393,-0.006754005793482065,-0.02191391587257385,0.009248673915863037,0.009531140327453613,XArbitraryCorrectedZVertical,0.4318197965621948,-0.5535901188850403,-0.4671713709831238,0.5374093055725098,-0.1915412694215775,-0.9813708662986755,-0.01413928717374802,-11.57465362548828,-53.97875595092773,-14.60055541992188,2
2017-12-05 15:37:32.545 -0800,47,C4D50155-580C-4885-BACB-A13DEF47355A,1512517051.959201,49.27715547078363,-122.9074694934538,342.8459,-1,-1,10,65,-9999,156844.077036625,-0.199249267578125,-0.9662322998046875,-0.0019989013671875,156844.055002625,0.0575125616369152,-0.06279494165908736,0.04345213634573285,156844.051004625,-0.1096560512643686,-1.517484016708154,1.3766629718331,0.09575438499450684,-0.09224391728639603,0.03137844055891037,-0.000640869140625,-0.002625703811645508,0.009925723075866699,XArbitraryCorrectedZVertical,0.4311894476413727,-0.5558212995529175,-0.4671420156955719,0.5356349349021912,-0.1925811916589737,-0.981215238571167,-0.01027668640017509,-11.57978820800781,-53.88777542114258,-14.42233276367188,2
2017-12-05 15:37:32.568 -0800,48,C4D50155-580C-4885-BACB-A13DEF47355A,1512517051.959201,49.27715547078363,-122.9074694934538,342.8459,-1,-1,10,65,-9999,156844.107095625,-0.184906005859375,-0.962677001953125,-0.008331298828125,156844.085062625,-0.02568885187490433,-0.03308365127372735,0.1610999406610733,156844.086038625,-0.1031600771493238,-1.525866867624122,1.373367027625088,-0.008785216137766838,-0.04128165543079376,0.1550625264644623,0.002133220434188843,0.01878201961517334,0.008471369743347168,XArbitraryCorrectedZVertical,0.4300814568996429,-0.5573386549949646,-0.4663708508014679,0.5356206893920898,-0.1958893239498138,-0.9805740714073181,-0.008807128295302391,-11.73529148101807,-54.04586410522461,-14.32904052734375,2
2017-12-05 15:37:32.598 -0800,49,C4D50155-580C-4885-BACB-A13DEF47355A,1512517051.959201,49.27715547078363,-122.9074694934538,342.8459,-1,-1,10,65,-9999,156844.137155625,-0.1841583251953125,-0.99737548828125,-0.0304718017578125,156844.115121625,-0.08666805030277568,-0.00521553467881118,0.06645066288743913,156844.121133625,-0.1096086885042676,-1.520642122073773,1.368603181203827,-0.07730556279420853,-0.01445063389837742,0.06346465647220612,0.01624011993408203,0.001875758171081543,-0.006491184234619141,XArbitraryCorrectedZVertical,0.4281124770641327,-0.5582897067070007,-0.4657654762268066,0.5367332100868225,-0.2005052268505096,-0.9796285033226013,-0.01006462052464485,-12.25055694580078,-54.02737426757812,-14.2781982421875,2
2017-12-05 15:37:32.628 -0800,50,C4D50155-580C-4885-BACB-A13DEF47355A,1512517051.959201,49.27715547078363,-122.9074694934538,342.8459,-1,-1,10,65,-9999,156844.167215625,-0.1979827880859375,-0.9908599853515625,-0.0264739990234375,156844.145181625,-0.1444855438845049,0.08971470658982632,-0.1736801810183896,156844.156168625,-0.131939799276775,-1.497436690758022,1.37184398262271,-0.123130701482296,0.09957153350114822,-0.1849049031734467,0.003781348466873169,-0.001979827880859375,-0.01187050342559814,XArbitraryCorrectedZVertical,0.428259938955307,-0.5561948418617249,-0.467606782913208,0.5371891856193542,-0.1970492005348206,-0.9802742004394531,-0.01448144484311342,-12.16215038299561,-53.80813980102539,-14.50564575195312,2
2017-12-05 15:37:32.658 -0800,51,C4D50155-580C-4885-BACB-A13DEF47355A,1512517051.959201,49.27715547078363,-122.9074694934538,342.8459,-1,-1,10,65,-9999,156844.197275625,-0.2070770263671875,-0.9862823486328125,-0.01690673828125,156844.175241625,-0.06017758693975749,0.05550533712332247,-0.1286003206144003,156844.191263625,-0.1446985231122608,-1.482843565556249,1.376428758647897,0.003330676816403866,0.01847290247678757,-0.07003116607666016,-0.006883770227432251,-0.01123112440109253,-0.00778961181640625,XArbitraryCorrectedZVertical,0.4295029640197754,-0.5541183352470398,-0.4690306782722473,0.5371010899543762,-0.1923349946737289,-0.9811699986457825,-0.0169601496309042,-11.70334434509277,-53.88977432250977,-14.59835815429688,2
2017-12-05 15:37:32.688 -0800,52,C4D50155-580C-4885-BACB-A13DEF47355A,1512517051.959201,49.27715547078363,-122.9074694934538,342.8459,-1,-1,10,65,-9999,156844.227365625,-0.193267822265625,-0.985321044921875,-0.03228759765625,156844.205301625,0.0265549118613981,0.01796115733982141,0.01116929761179233,156844.226328625,-0.1401212596366373,-1.487315317022351,1.375964571324374,0.0004244698211550713,-0.008270878344774246,0.07342466711997986,-0.0007857680320739746,-0.004591763019561768,-0.01582920551300049,XArbitraryCorrectedZVertical,0.4295844733715057,-0.5544260144233704,-0.4686482548713684,0.53705233335495,-0.1928635388612747,-0.9810802340507507,-0.01613795012235641,-11.74231910705566,-53.97942733764648,-14.66531372070312,2
2017-12-05 15:37:32.719 -0800,53,C4D50155-580C-4885-BACB-A13DEF47355A,1512517051.959201,49.27715547078363,-122.9074694934538,342.8459,-1,-1,10,65,-9999,156844.257425625,-0.203643798828125,-0.985595703125,-0.0181732177734375,156844.235361625,-0.04657735588494084,0.02011272518449642,0.09703120905260101,156844.226328625,-0.1401212596366373,-1.487315317022351,1.375964571324374,0.0004244698211550713,-0.008270878344774246,0.07342466711997986,-0.0007857680320739746,-0.004591763019561768,-0.01582920551300049,XArbitraryCorrectedZVertical,0.4295844733715057,-0.5544260144233704,-0.4686482548713684,0.53705233335495,-0.1928635388612747,-0.9810802340507507,-0.01613795012235641,-11.74231910705566,-53.97942733764648,-14.66531372070312,2
2017-12-05 15:37:32.751 -0800,54,C4D50155-580C-4885-BACB-A13DEF47355A,1512517051.959201,49.27715547078363,-122.9074694934538,342.8459,-1,-1,10,65,-9999,156844.287485625,-0.1841583251953125,-0.9727783203125,-0.0272216796875,156844.265421625,-0.11524802985707,0.07122704230249625,0.0756785160645637,156844.261423625,-0.1468523875124776,-1.479706547503008,1.372244180066405,-0.07439659535884857,0.07036492228507996,0.102009654045105,-0.007626086473464966,-0.005501925945281982,2.300739288330078e-05,XArbitraryCorrectedZVertical,0.4283849895000458,-0.5545429587364197,-0.4679195582866669,0.5385228395462036,-0.1963686645030975,-0.9803531765937805,-0.01793681457638741,-11.97859001159668,-53.88874816894531,-15.0208740234375,2
2017-12-05 15:37:32.793 -0800,55,C4D50155-580C-4885-BACB-A13DEF47355A,1512517051.959201,49.27715547078363,-122.9074694934538,342.8459,-1,-1,10,65,-9999,156844.317545625,-0.192047119140625,-0.9576568603515625,-0.0075836181640625,156844.295480625,-0.1402780156782888,0.04702130483865705,-0.01630493745790113,156844.296457625,-0.1672195033119362,-1.458133469257652,1.370402318458315,-0.1332815438508987,0.03564545512199402,-0.007642523851245642,0.01543322205543518,0.0143052339553833,-0.004758596420288086,XArbitraryCorrectedZVertical,0.427234560251236,-0.5534300804138184,-0.4683557450771332,0.5401996374130249,-0.1977299302816391,-0.9799882173538208,-0.0223715528845787,-12.00540161132812,-53.93571472167969,-14.97879028320312,2
2017-12-05 15:37:32.809 -0800,56,C4D50155-580C-4885-BACB-A13DEF47355A,1512517051.959201,49.27715547078363,-122.9074694934538,342.8459,-1,-1,10,65,-9999,156844.347604625,-0.206817626953125,-0.98052978515625,-0.019775390625,156844.325540625,-0.04046327065433692,0.05940260706254443,0.06746053357279719,156844.331552625,-0.179759730242257,-1.444135426583468,1.369391184746396,-0.0281529612839222,0.0501500777900219,0.07729322463274002,-0.002471804618835449,0.01884901523590088,0.01746499538421631,XArbitraryCorrectedZVertical,0.4267355501651764,-0.552508533000946,-0.4685205817222595,0.5413929224014282,-0.1983796358108521,-0.9797864556312561,-0.02526218257844448,-12.04160308837891,-53.77792739868164,-15.19235229492188,2
2017-12-05 15:37:32.839 -0800,57,C4D50155-580C-4885-BACB-A13DEF47355A,1512517051.959201,49.27715547078363,-122.9074694934538,342.8459,-1,-1,10,65,-9999,156844.377664625,-0.20355224609375,-1.009506225585938,-0.020599365234375,156844.355600625,-0.0728486410902455,-0.006396380306152315,0.1241331342019014,156844.366617625,-0.1850732829873672,-1.43879351253872,1.364944554889781,-0.06547924131155014,-0.0177165511995554,0.1126015931367874,-0.002963781356811523,-0.02262336015701294,0.002282023429870605,XArbitraryCorrectedZVertical,0.4251431524753571,-0.552997350692749,-0.4677872955799103,0.5427783131599426,-0.2025568038225174,-0.9788872599601746,-0.02689445950090885,-12.19064331054688,-53.77338027954102,-15.23236083984375,2
2017-12-05 15:37:32.878 -0800,58,C4D50155-580C-4885-BACB-A13DEF47355A,1512517051.959201,49.27715547078363,-122.9074694934538,342.8459,-1,-1,10,65,-9999,156844.407724625,-0.2084503173828125,-1.003524780273438,-0.021484375,156844.385660625,-0.06594998860250424,0.03410071249402861,-0.001136637153245819,156844.401712625,-0.1937058733198791,-1.429895906132625,1.36376790760317,-0.03377414494752884,0.04499681666493416,-0.01960552483797073,-0.00255817174911499,-0.02641987800598145,0.008899092674255371,XArbitraryCorrectedZVertical,0.4244727492332458,-0.5526247620582581,-0.4679691791534424,0.5435252785682678,-0.2034507244825363,-0.9786460399627686,-0.0288575142621994,-12.30652141571045,-53.81135177612305,-15.39804077148438,2
2017-12-05 15:37:32.900 -0800,59,C4D50155-580C-4885-BACB-A13DEF47355A,1512517051.959201,49.27715547078363,-122.9074694934538,342.8459,-1,-1,10,65,-9999,156844.437784625,-0.2029571533203125,-0.9864501953125,-0.029205322265625,156844.415750625,0.004954278575874407,0.04883012385103887,-0.02212447707194228,156844.436746625,-0.1912364598381192,-1.431114942732885,1.364339762886423,0.04467043280601501,0.02571347914636135,0.0009459045249968767,-0.000223010778427124,-0.008342862129211426,-0.0008720159530639648,XArbitraryCorrectedZVertical,0.4250479638576508,-0.552329957485199,-0.467688262462616,0.5436174273490906,-0.2029324918985367,-0.9787634611129761,-0.02853169292211533,-12.314133644104,-53.64101409912109,-15.3087158203125,2
2017-12-05 15:37:32.929 -0800,60,C4D50155-580C-4885-BACB-A13DEF47355A,1512517051.959201,49.27715547078363,-122.9074694934538,342.8459,-1,-1,10,65,-9999,156844.467844625,-0.2113189697265625,-0.984710693359375,-0.0114288330078125,156844.445810625,0.04610784058475987,0.05400491216517183,0.003109506888776519,156844.436746625,-0.1912364598381192,-1.431114942732885,1.364339762886423,0.04467043280601501,0.02571347914636135,0.0009459045249968767,-0.000223010778427124,-0.008342862129211426,-0.0008720159530639648,XArbitraryCorrectedZVertical,0.4250479638576508,-0.552329957485199,-0.467688262462616,0.5436174273490906,-0.2029324918985367,-0.9787634611129761,-0.02853169292211533,-12.314133644104,-53.64101409912109,-15.3087158203125,2
2017-12-05 15:37:32.960 -0800,61,C4D50155-580C-4885-BACB-A13DEF47355A,1512517051.959201,49.27715547078363,-122.9074694934538,342.8459,-1,-1,10,65,-9999,156844.497903625,-0.2079010009765625,-0.9724884033203125,-0.0098724365234375,156844.475870625,-0.02291330538682375,0.05418467553875218,-0.01411848220294607,156844.471841625,-0.1827698095760384,-1.43789623896199,1.364365478526569,0.02885674498975277,0.05437726899981499,-0.0003455453552305698,-0.00835883617401123,-0.006033539772033691,0.01444113254547119,XArbitraryCorrectedZVertical,0.4258100688457489,-0.5523675680160522,-0.4668345153331757,0.5437168478965759,-0.2030974328517914,-0.9787687063217163,-0.02715170942246914,-12.31423187255859,-53.76866149902344,-15.36932373046875,2
2017-12-05 15:37:32.989 -0800,62,C4D50155-580C-4885-BACB-A13DEF47355A,1512517051.959201,49.27715547078363,-122.9074694934538,342.8459,-1,-1,10,65,-9999,156844.527963625,-0.19134521484375,-0.9604949951171875,-0.040863037109375,156844.505930625,-0.1559994545413535,0.07261801133984463,-0.0792812403872229,156844.506906625,-0.1945051716903242,-1.424600988085174,1.365076295666547,-0.1278143972158432,0.06435848027467728,-0.06171292811632156,-0.0007597506046295166,0.01214778423309326,0.01462656259536743,XArbitraryCorrectedZVertical,0.4258985817432404,-0.5511228442192078,-0.4673609137535095,0.5444577932357788,-0.2020295560359955,-0.9789141416549683,-0.02974801696836948,-12.27336692810059,-53.82636642456055,-15.45281982421875,2
2017-12-05 15:37:33.032 -0800,63,C4D50155-580C-4885-BACB-A13DEF47355A,1512517051.959201,49.27715547078363,-122.9074694934538,342.8459,-1,-1,10,65,-9999,156844.558023625,-0.2272796630859375,-0.9927825927734375,-0.0237579345703125,156844.535989625,-0.2213321224031774,0.02925988458059158,-0.07846631309365865,156844.542001625,-0.2307693456474149,-1.387754603378866,1.367206211578918,-0.2036812752485275,0.02105339244008064,-0.06853307783603668,-0.002045810222625732,0.008552312850952148,0.002900600433349609,XArbitraryCorrectedZVertical,0.4252354800701141,-0.548433780670166,-0.4698808193206787,0.5455212593078613,-0.1987445801496506,-0.9793469905853271,-0.03679034858942032,-12.07577133178711,-53.80078125,-15.68377685546875,2
2017-12-05 15:37:33.051 -0800,64,C4D50155-580C-4885-BACB-A13DEF47355A,1512517051.959201,49.27715547078363,-122.9074694934538,342.8459,-1,-1,10,65,-9999,156844.588083625,-0.2068634033203125,-0.9884796142578125,-0.0356597900390625,156844.566049625,-0.1185112011407441,-0.01467668076742668,0.05520413360403451,156844.577036625,-0.251445488712048,-1.368019227167006,1.365272690284414,-0.10601956397295,-0.04196039214730263,0.05116752907633781,-0.01356080174446106,0.000225067138671875,0.007913708686828613,XArbitraryCorrectedZVertical,0.4235893785953522,-0.5477489233016968,-0.4709223210811615,0.5465905070304871,-0.1998333334922791,-0.9789542555809021,-0.04108631238341331,-12.14650726318359,-53.67186737060547,-16.03237915039062,2
2017-12-05 15:37:33.079 -0800,65,C4D50155-580C-4885-BACB-A13DEF47355A,1512517051.959201,49.27715547078363,-122.9074694934538,342.8459,-1,-1,10,65,-9999,156844.618143625,-0.207794189453125,-1.003799438476562,-0.045867919921875,156844.596109625,-0.1288810177932947,-0.06333023703819329,-0.0291227317844525,156844.612131625,-0.2704399555941566,-1.351825145088674,1.364818600070934,-0.1041051223874092,-0.05559545755386353,-0.05199042335152626,-0.01183634996414185,-0.02596032619476318,0.004480838775634766,XArbitraryCorrectedZVertical,0.4220608174800873,-0.5474103689193726,-0.4725959599018097,0.546667218208313,-0.1995741277933121,-0.9788615107536316,-0.04441310837864876,-12.03533267974854,-53.64704895019531,-16.22637939453125,2
2017-12-05 15:37:33.110 -0800,66,C4D50155-580C-4885-BACB-A13DEF47355A,1512517051.959201,49.27715547078363,-122.9074694934538,342.8459,-1,-1,10,65,-9999,156844.648203625,-0.2049560546875,-0.9926910400390625,-0.050933837890625,156844.626169625,-0.05345310518730741,-0.01147050113108029,-0.05312793321820874,156844.647195625,-0.2775502590849512,-1.34576771944758,1.365745998024317,0.01558918040245771,-0.02091510593891144,0.002421572105959058,-0.006831616163253784,-0.01388442516326904,-0.005424141883850098,XArbitraryCorrectedZVertical,0.4218510389328003,-0.5471130013465881,-0.4734534621238708,0.5463843941688538,-0.1984143406152725,-0.9790507555007935,-0.04541812837123871,-11.95821475982666,-53.45529556274414,-16.40780639648438,2
2017-12-05 15:37:33.139 -0800,67,C4D50155-580C-4885-BACB-A13DEF47355A,1512517051.959201,49.27715547078363,-122.9074694934538,342.8459,-1,-1,10,65,-9999,156844.678262625,-0.19305419921875,-0.97802734375,-0.0459442138671875,156844.656229625,0.01010669633685071,-0.02446060198015979,0.02246163326594631,156844.647195625,-0.2775502590849512,-1.34576771944758,1.365745998024317,0.01558918040245771,-0.02091510593891144,0.002421572105959058,-0.006831616163253784,-0.01388442516326904,-0.005424141883850098,XArbitraryCorrectedZVertical,0.4218510389328003,-0.5471130013465881,-0.4734534621238708,0.5463843941688538,-0.1984143406152725,-0.9790507555007935,-0.04541812837123871,-11.95821475982666,-53.45529556274414,-16.40780639648438,2
2017-12-05 15:37:33.169 -0800,68,C4D50155-580C-4885-BACB-A13DEF47355A,1512517051.959201,49.27715547078363,-122.9074694934538,342.8459,-1,-1,10,65,-9999,156844.708322625,-0.1926727294921875,-0.974517822265625,-0.0503997802734375,156844.686288625,-0.02399667931826798,-0.01899339857833612,-0.0334583580391015,156844.682291625,-0.2744535386740161,-1.350026577884714,1.365261082551069,0.0007583824917674065,-0.03253830969333649,-0.006388366222381592,0.005786597728729248,0.000527799129486084,-0.001160621643066406,XArbitraryCorrectedZVertical,0.4215318262577057,-0.5476974844932556,-0.473405510187149,0.5460867285728455,-0.1990696787834167,-0.9789518713951111,-0.0446767695248127,-11.9745979309082,-53.50751113891602,-16.39556884765625,2
2017-12-05 15:37:33.200 -0800,69,C4D50155-580C-4885-BACB-A13DEF47355A,1512517051.959201,49.27715547078363,-122.9074694934538,342.8459,-1,-1,10,65,-9999,156844.738382625,-0.2024078369140625,-0.9875640869140625,-0.0572662353515625,156844.716348625,0.01840617155797365,0.06361466264261376,0.003684217052015618,156844.717325625,-0.2770295343196603,-1.347365427665873,1.366103838031366,0.01723476126790047,0.0533626489341259,-0.006941492203623056,-0.0005996227264404297,-0.0001397132873535156,-0.01079297065734863,XArbitraryCorrectedZVertical,0.4217324256896973,-0.5473846197128296,-0.4737212061882019,0.5459719300270081,-0.1981460899114609,-0.9791235327720642,-0.04502367973327637,-11.9779634475708,-53.56404113769531,-16.30624389648438,2
2017-12-05 15:37:33.230 -0800,70,C4D50155-580C-4885-BACB-A13DEF47355A,1512517051.959201,49.27715547078363,-122.9074694934538,342.8459,-1,-1,10,65,-9999,156844.768442625,-0.1829376220703125,-0.9745330810546875,-0.052093505859375,156844.746408625,0.04496507816100687,0.008311459446028294,0.04977288287692692,156844.752420625,-0.2664679393537666,-1.356843878368563,1.365008670983798,0.05739381164312363,-0.00199397187680006,0.05322378128767014,0.001553177833557129,-0.004833817481994629,-0.01139247417449951,XArbitraryCorrectedZVertical,0.4220245778560638,-0.5479138493537903,-0.4726094901561737,0.5461788177490234,-0.1996122300624847,-0.9789003133773804,-0.04337133839726448,-12.06053256988525,-53.36548614501953,-16.248779296875,2
2017-12-05 15:37:33.269 -0800,71,C4D50155-580C-4885-BACB-A13DEF47355A,1512517051.959201,49.27715547078363,-122.9074694934538,342.8459,-1,-1,10,65,-9999,156844.798532625,-0.1923828125,-0.9581756591796875,-0.043426513671875,156844.776468625,0.02727636220070057,0.03816815842690664,-0.02067411954228513,156844.787485625,-0.2588447042451598,-1.363846529766835,1.36509056688227,0.03660038113594055,0.0342407338321209,-0.02045576646924019,0.01613190770149231,0.01817792654037476,-0.003576219081878662,XArbitraryCorrectedZVertical,0.4224865734577179,-0.5482035279273987,-0.4720234572887421,0.5460377335548401,-0.199832484126091,-0.9789170622825623,-0.04195597395300865,-11.92214298248291,-53.69290161132812,-16.21365356445312,2
2017-12-05 15:37:33.290 -0800,72,C4D50155-580C-4885-BACB-A13DEF47355A,1512517051.959201,49.27715547078363,-122.9074694934538,342.8459,-1,-1,10,65,-9999,156844.828575625,-0.2161407470703125,-0.9895172119140625,-0.0386199951171875,156844.806511625,0.02183179566814257,0.02854083108627019,0.03769544733341757,156844.822563625,-0.2524863199376133,-1.369445257218667,1.364360838487995,0.03045114316046238,-0.004076830111443996,0.06654651463031769,-0.01557359099388123,-0.003272652626037598,0.003519296646118164,XArbitraryCorrectedZVertical,0.4226733446121216,-0.5485047101974487,-0.4713148176670074,0.546203076839447,-0.2007655054330826,-0.9787677526473999,-0.04097965359687805,-11.92237949371338,-53.40200805664062,-16.02560424804688,2
2017-12-05 15:37:33.320 -0800,73,C4D50155-580C-4885-BACB-A13DEF47355A,1512517051.959201,49.27715547078363,-122.9074694934538,342.8459,-1,-1,10,65,-9999,156844.858635625,-0.1979522705078125,-0.987457275390625,-0.04364013671875,156844.836571625,-0.009272860599546899,-0.01594700860739448,0.03382267847622434,156844.857597625,-0.2515906388845711,-1.371209489980697,1.363445126680134,-0.01363294012844563,-0.02080888673663139,-0.03108968958258629,0.002618849277496338,-0.00965583324432373,-0.003432214260101318,XArbitraryCorrectedZVertical,0.4222073554992676,-0.5489439368247986,-0.4712479114532471,0.5461798310279846,-0.2017155438661575,-0.9785796403884888,-0.04080300778150558,-12.30280208587646,-53.31734085083008,-16.20599365234375,2
2017-12-05 15:37:33.351 -0800,74,C4D50155-580C-4885-BACB-A13DEF47355A,1512517051.959201,49.27715547078363,-122.9074694934538,342.8459,-1,-1,10,65,-9999,156844.888695625,-0.20208740234375,-0.9760284423828125,-0.030731201171875,156844.866630625,-0.0270625103651672,-0.005102882964700828,-0.09197493140697657,156844.857597625,-0.2515906388845711,-1.371209489980697,1.363445126680134,-0.01363294012844563,-0.02080888673663139,-0.03108968958258629,0.002618849277496338,-0.00965583324432373,-0.003432214260101318,XArbitraryCorrectedZVertical,0.4222073554992676,-0.5489439368247986,-0.4712479114532471,0.5461798310279846,-0.2017155438661575,-0.9785796403884888,-0.04080300778150558,-12.30280208587646,-53.31734085083008,-16.20599365234375,2
2017-12-05 15:37:33.380 -0800,75,C4D50155-580C-4885-BACB-A13DEF47355A,1512517051.959201,49.27715547078363,-122.9074694934538,342.8459,-1,-1,10,65,-9999,156844.918754625,-0.215087890625,-0.9990997314453125,-0.028167724609375,156844.896690625,-0.01793479204502962,0.006505037278627547,-0.064126788520236,156844.892692625,-0.2568594447915889,-1.366453327289822,1.366353824689434,-0.008128317072987556,0.002597969025373459,-0.0883641242980957,-0.00215032696723938,0.003161072731018066,0.0101172924041748,XArbitraryCorrectedZVertical,0.4228248298168182,-0.5482946634292603,-0.47229865193367,0.545446515083313,-0.1987316310405731,-0.9791743159294128,-0.04118425026535988,-12.01761436462402,-53.48818588256836,-15.93988037109375,2
2017-12-05 15:37:33.410 -0800,76,C4D50155-580C-4885-BACB-A13DEF47355A,1512517051.959201,49.27715547078363,-122.9074694934538,342.8459,-1,-1,10,65,-9999,156844.948814625,-0.1911468505859375,-0.99774169921875,-0.0420379638671875,156844.926750625,0.0007009439989088555,-0.02645957069437326,-0.04365506922079689,156844.927727625,-0.2585765140166668,-1.36552459865889,1.367740945671854,0.005529186222702265,-0.03463442996144295,-0.03289419785141945,-0.01256769895553589,-0.02208614349365234,0.009765505790710449,XArbitraryCorrectedZVertical,0.4230227470397949,-0.5481841564178467,-0.4728635847568512,0.5449143648147583,-0.1973627358675003,-0.9794549942016602,-0.04109177365899086,-11.98044586181641,-53.37371063232422,-16.1253662109375,2
2017-12-05 15:37:33.440 -0800,77,C4D50155-580C-4885-BACB-A13DEF47355A,1512517051.959201,49.27715547078363,-122.9074694934538,342.8459,-1,-1,10,65,-9999,156844.978874625,-0.1905059814453125,-0.975494384765625,-0.0359954833984375,156844.956810625,0.07695683338780172,-0.004316717810909437,-0.06346259614437023,156844.962822625,-0.2527499902365544,-1.372284299779422,1.369965978715065,0.09363036602735519,-0.01038645301014185,-0.0577949620783329,0.01001214981079102,-0.01010423898696899,-0.0008802413940429688,XArbitraryCorrectedZVertical,0.4237405061721802,-0.5484347343444824,-0.4731800556182861,0.5438287258148193,-0.1954980194568634,-0.9799012541770935,-0.03932665288448334,-11.73649311065674,-53.53402709960938,-16.223876953125,2
2017-12-05 15:37:33.470 -0800,78,C4D50155-580C-4885-BACB-A13DEF47355A,1512517051.959201,49.27715547078363,-122.9074694934538,342.8459,-1,-1,10,65,-9999,156845.008934625,-0.1934967041015625,-0.9954986572265625,-0.0340423583984375,156844.986900625,0.07247633116985241,0.02104429893380614,0.009898437139606513,156844.997886625,-0.2366378903623118,-1.387910706026265,1.37098633263926,0.07935652136802673,0.02134755626320839,0.02709981799125671,-0.0003001391887664795,-0.001661419868469238,0.003400623798370361,XArbitraryCorrectedZVertical,0.4247953295707703,-0.5490960478782654,-0.4723363816738129,0.5430712103843689,-0.1951039284467697,-0.9801043272018433,-0.03608491644263268,-11.8814582824707,-53.64803314208984,-15.763916015625,2
2017-12-05 15:37:33.504 -0800,79,C4D50155-580C-4885-BACB-A13DEF47355A,1512517051.959201,49.27715547078363,-122.9074694934538,342.8459,-1,-1,10,65,-9999,156845.038994625,-0.1920318603515625,-0.9938201904296875,-0.030548095703125,156845.016960625,0.07685456800194269,0.007256048706029893,0.0003744404492651409,156845.032982625,-0.2210105935000145,-1.402996037201856,1.371148614177083,0.1206447407603264,-0.0009783376008272171,-0.01686345227062702,0.01057949662208557,-0.01643025875091553,0.0001676082611083984,XArbitraryCorrectedZVertical,0.4255816638469696,-0.54984050989151,-0.4713367819786072,0.5425708293914795,-0.1954702585935593,-0.980136513710022,-0.033111322671175,-11.82309532165527,-53.65099716186523,-15.93002319335938,2
2017-12-05 15:37:33.530 -0800,80,C4D50155-580C-4885-BACB-A13DEF47355A,1512517051.959201,49.27715547078363,-122.9074694934538,342.8459,-1,-1,10,65,-9999,156845.069053625,-0.207611083984375,-0.9768829345703125,-0.03173828125,156845.047020625,0.1187258519246045,0.0008205199318534132,-0.01481995883407295,156845.068016625,-0.1992140844864599,-1.424521581991165,1.372067335400331,0.1136543899774551,0.006437472067773342,0.01493589393794537,-0.01191055774688721,0.003679513931274414,-0.003309488296508789,XArbitraryCorrectedZVertical,0.4268016517162323,-0.5508702993392944,-0.4702240824699402,0.5415318012237549,-0.1952427476644516,-0.9803183078765869,-0.02876452729105949,-11.80466842651367,-53.61614608764648,-15.59930419921875,2
2017-12-05 15:37:33.560 -0800,81,C4D50155-580C-4885-BACB-A13DEF47355A,1512517051.959201,49.27715547078363,-122.9074694934538,342.8459,-1,-1,10,65,-9999,156845.099113625,-0.200927734375,-0.985870361328125,-0.03759765625,156845.077080625,0.05483102473531441,-0.00335558297349984,0.03291081211898121,156845.068016625,-0.1992140844864599,-1.424521581991165,1.372067335400331,0.1136543899774551,0.006437472067773342,0.01493589393794537,-0.01191055774688721,0.003679513931274414,-0.003309488296508789,XArbitraryCorrectedZVertical,0.4268016517162323,-0.5508702993392944,-0.4702240824699402,0.5415318012237549,-0.1952427476644516,-0.9803183078765869,-0.02876452729105949,-11.80466842651367,-53.61614608764648,-15.59930419921875,2
2017-12-05 15:37:33.590 -0800,82,C4D50155-580C-4885-BACB-A13DEF47355A,1512517051.959201,49.27715547078363,-122.9074694934538,342.8459,-1,-1,10,65,-9999,156845.129173625,-0.194488525390625,-0.9534912109375,-0.0271148681640625,156845.107139625,0.05101764437042995,0.01259781722051083,0.01373551963819268,156845.103111625,-0.1873457130613201,-1.436577318972259,1.371093256990286,0.05555526539683342,-0.01257502846419811,0.03508380055427551,-0.00596165657043457,-0.007652163505554199,-0.01159512996673584,XArbitraryCorrectedZVertical,0.4269389510154724,-0.551774263381958,-0.4693601727485657,0.5412527918815613,-0.196522444486618,-0.9801255464553833,-0.02653658948838711,-11.63254356384277,-53.78979873657227,-15.34817504882812,2
2017-12-05 15:37:33.620 -0800,83,C4D50155-580C-4885-BACB-A13DEF47355A,1512517051.959201,49.27715547078363,-122.9074694934538,342.8459,-1,-1,10,65,-9999,156845.159233625,-0.20849609375,-0.9926605224609375,-0.0306854248046875,156845.137199625,-0.006067746227636536,0.03185726559174586,-0.008543420776974196,156845.138176625,-0.1800688306607037,-1.443024255854081,1.371184385214657,0.01178698521107435,0.03215903043746948,-0.007092304062098265,-0.005272537469863892,0.02787309885025024,0.003483474254608154,XArbitraryCorrectedZVertical,0.4274631142616272,-0.5519478321075439,-0.4687888920307159,0.5411573052406311,-0.1966012865304947,-0.9801436066627502,-0.02525775320827961,-11.83424091339111,-53.68001937866211,-15.10543823242188,2
2017-12-05 15:37:33.650 -0800,84,C4D50155-580C-4885-BACB-A13DEF47355A,1512517051.959201,49.27715547078363,-122.9074694934538,342.8459,-1,-1,10,65,-9999,156845.189293625,-0.1943511962890625,-0.9720306396484375,-0.0308074951171875,156845.167259625,-0.03459898993398244,-0.01480770829305858,0.01953162343464113,156845.173271625,-0.1811792872534263,-1.442093068827909,1.370622869131588,-0.02322173677384853,-0.02299469709396362,0.02296682447195053,-0.007802665233612061,-0.01555812358856201,-0.01454293727874756,XArbitraryCorrectedZVertical,0.4272017180919647,-0.5520353317260742,-0.4687598347663879,0.5412994623184204,-0.1971228420734406,-0.9800320863723755,-0.02551136910915375,-11.78634166717529,-53.66015243530273,-15.13311767578125,2
2017-12-05 15:37:33.680 -0800,85,C4D50155-580C-4885-BACB-A13DEF47355A,1512517051.959201,49.27715547078363,-122.9074694934538,342.8459,-1,-1,10,65,-9999,156845.219352625,-0.1985626220703125,-0.95843505859375,-0.01763916015625,156845.197319625,-0.04669906234675746,0.01285028489185034,-0.009340238575125904,156845.208305625,-0.1869903396841294,-1.43655554665867,1.370441910223435,-0.03323707729578018,0.006805602461099625,-0.003727753646671772,-0.0003706514835357666,0.01724278926849365,0.000961005687713623,XArbitraryCorrectedZVertical,0.4268404245376587,-0.5518098473548889,-0.4691086709499359,0.541512131690979,-0.1971543580293655,-0.9799960851669312,-0.02662628889083862,-11.97798728942871,-53.87046432495117,-15.43963623046875,2
2017-12-05 15:37:33.711 -0800,86,C4D50155-580C-4885-BACB-A13DEF47355A,1512517051.959201,49.27715547078363,-122.9074694934538,342.8459,-1,-1,10,65,-9999,156845.249412625,-0.208038330078125,-0.9853515625,-0.0213470458984375,156845.227379625,-0.06934179056682915,0.02879010296430161,0.007295996122381081,156845.243400625,-0.1952826140904438,-1.427956142231059,1.369851119970819,-0.05833659693598747,0.008912574499845505,0.02664989791810513,-0.01097279787063599,0.009953439235687256,0.01135933399200439,XArbitraryCorrectedZVertical,0.4263875186443329,-0.551354706287384,-0.4693841636180878,0.5420937538146973,-0.1974927932024002,-0.9798783659934998,-0.02840334363281727,-11.99602794647217,-53.82615280151367,-15.46853637695312,2
2017-12-05 15:37:33.755 -0800,87,C4D50155-580C-4885-BACB-A13DEF47355A,1512517051.959201,49.27715547078363,-122.9074694934538,342.8459,-1,-1,10,65,-9999,156845.279472625,-0.190155029296875,-0.987091064453125,-0.0258026123046875,156845.257438625,-0.05032761933199042,-0.01793239520004855,0.004344148370137253,156845.278465625,-0.2018022669681187,-1.422198270514061,1.369793151293549,-0.01626523025333881,-0.01757106743752956,-0.05984444916248322,0.006801962852478027,-0.007560014724731445,0.003868222236633301,XArbitraryCorrectedZVertical,0.4259243905544281,-0.5511932969093323,-0.4699105024337769,0.5421663522720337,-0.1973842233419418,-0.9798668026924133,-0.02954872511327267,-11.8393726348877,-53.93746948242188,-15.402099609375,2
2017-12-05 15:37:33.770 -0800,88,C4D50155-580C-4885-BACB-A13DEF47355A,1512517051.959201,49.27715547078363,-122.9074694934538,342.8459,-1,-1,10,65,-9999,156845.309532625,-0.20611572265625,-0.986541748046875,-0.0264129638671875,156845.287498625,-0.03145752511212497,0.005502357128212714,-0.08245892419990544,156845.278465625,-0.2018022669681187,-1.422198270514061,1.369793151293549,-0.01626523025333881,-0.01757106743752956,-0.05984444916248322,0.006801962852478027,-0.007560014724731445,0.003868222236633301,XArbitraryCorrectedZVertical,0.4259243905544281,-0.5511932969093323,-0.4699105024337769,0.5421663522720337,-0.1973842233419418,-0.9798668026924133,-0.02954872511327267,-11.8393726348877,-53.93746948242188,-15.402099609375,2
2017-12-05 15:37:33.801 -0800,89,C4D50155-580C-4885-BACB-A13DEF47355A,1512517051.959201,49.27715547078363,-122.9074694934538,342.8459,-1,-1,10,65,-9999,156845.339592625,-0.19549560546875,-0.995086669921875,-0.0369415283203125,156845.317558625,-0.06298695557368209,0.008621451396913518,0.004174238692590198,156845.313560625,-0.2075524269674846,-1.416700632275043,1.371655632441351,-0.03828700631856918,0.003637590445578098,-0.01872245594859123,-0.01004353165626526,-0.005618155002593994,0.003391146659851074,XArbitraryCorrectedZVertical,0.4262165129184723,-0.5506021976470947,-0.4707189798355103,0.5418362617492676,-0.1954160630702972,-0.9802369475364685,-0.03035340830683708,-11.77820205688477,-53.81906127929688,-15.57962036132812,2
2017-12-05 15:37:33.831 -0800,90,C4D50155-580C-4885-BACB-A13DEF47355A,1512517051.959201,49.27715547078363,-122.9074694934538,342.8459,-1,-1,10,65,-9999,156845.369682625,-0.1934814453125,-1.0008544921875,-0.0358123779296875,156845.347618625,-0.04306278219436326,0.002185922622737039,0.02047970878270934,156845.348594625,-0.2152518383159557,-1.409330891192274,1.370589214548442,-0.03822845220565796,-0.007034941110759974,0.03017775341868401,0.005484700202941895,-0.01583945751190186,-0.008963108062744141,XArbitraryCorrectedZVertical,0.4254968166351318,-0.5504289269447327,-0.4709970355033875,0.5423361659049988,-0.1962195485830307,-0.9800254106521606,-0.03196091204881668,-11.85752487182617,-53.77204132080078,-15.65093994140625,2
2017-12-05 15:37:33.861 -0800,91,C4D50155-580C-4885-BACB-A13DEF47355A,1512517051.959201,49.27715547078363,-122.9074694934538,342.8459,-1,-1,10,65,-9999,156845.399742625,-0.19970703125,-0.9839324951171875,-0.0351715087890625,156845.377678625,-0.04255198789728607,0.04464842830739645,0.005702360526077665,156845.383690625,-0.2197456946407494,-1.404467582958598,1.369898292388886,-0.03013580851256847,0.03753780201077461,0.01022735051810741,0.003339707851409912,-0.008103549480438232,-0.003411054611206055,XArbitraryCorrectedZVertical,0.4251874387264252,-0.5501837730407715,-0.4710280001163483,0.5428004264831543,-0.1967296004295349,-0.9798877835273743,-0.03302691504359245,-11.8227071762085,-53.76386260986328,-15.5513916015625,2
2017-12-05 15:37:33.891 -0800,92,C4D50155-580C-4885-BACB-A13DEF47355A,1512517051.959201,49.27715547078363,-122.9074694934538,342.8459,-1,-1,10,65,-9999,156845.429802625,-0.1993560791015625,-0.9795074462890625,-0.0312347412109375,156845.407738625,-0.05106052126398022,0.02982154525448929,0.0001917475984857051,156845.418754625,-0.2260403287451082,-1.397210280269483,1.369452266159078,-0.03621513396501541,0.01846970617771149,-0.01120513491332531,-0.004972904920578003,1.657009124755859e-05,-0.001038849353790283,XArbitraryCorrectedZVertical,0.4250245988368988,-0.5496265888214111,-0.471095860004425,0.5434333086013794,-0.1969161331653595,-0.9797986745834351,-0.03452940657734871,-11.99473762512207,-53.89470291137695,-15.59011840820312,2
2017-12-05 15:37:33.921 -0800,93,C4D50155-580C-4885-BACB-A13DEF47355A,1512517051.959201,49.27715547078363,-122.9074694934538,342.8459,-1,-1,10,65,-9999,156845.459862625,-0.2056732177734375,-0.98065185546875,-0.0299224853515625,156845.437797625,-0.05171725678879377,0.006608900561140637,-0.0828307014880805,156845.453850625,-0.2348688500522221,-1.388646809947844,1.371535464789666,-0.04530780017375946,-0.001531380694359541,-0.09862913191318512,-0.009557992219924927,0.002902984619140625,0.00717318058013916,XArbitraryCorrectedZVertical,0.4252825081348419,-0.5488283634185791,-0.4721300899982452,0.5431405901908875,-0.1946045905351639,-0.9802131652832031,-0.03584443032741547,-11.91132736206055,-53.72867584228516,-15.80514526367188,2
2017-12-05 15:37:33.951 -0800,94,C4D50155-580C-4885-BACB-A13DEF47355A,1512517051.959201,49.27715547078363,-122.9074694934538,342.8459,-1,-1,10,65,-9999,156845.489921625,-0.2047119140625,-0.986602783203125,-0.0363311767578125,156845.467857625,-0.0436822334639157,-0.02950835751029597,-0.06681658122121602,156845.488884625,-0.2422963761580319,-1.382559667086128,1.373548634807632,-0.01669527404010296,-0.03562326729297638,-0.04287727177143097,-0.01274102926254272,-0.006603479385375977,0.0007550716400146484,XArbitraryCorrectedZVertical,0.4253270626068115,-0.548422634601593,-0.4732871651649475,0.5425082445144653,-0.192443922162056,-0.980609655380249,-0.03665900602936745,-11.64866733551025,-53.74362945556641,-15.89974975585938,2
2017-12-05 15:37:33.990 -0800,95,C4D50155-580C-4885-BACB-A13DEF47355A,1512517051.959201,49.27715547078363,-122.9074694934538,342.8459,-1,-1,10,65,-9999,156845.519981625,-0.1977996826171875,-0.9850921630859375,-0.0359039306640625,156845.497917625,-0.02698021868748375,-0.01684822232027729,-0.04414349296471742,156845.488884625,-0.2422963761580319,-1.382559667086128,1.373548634807632,-0.01669527404010296,-0.03562326729297638,-0.04287727177143097,-0.01274102926254272,-0.006603479385375977,0.0007550716400146484,XArbitraryCorrectedZVertical,0.4253270626068115,-0.548422634601593,-0.4732871651649475,0.5425082445144653,-0.192443922162056,-0.980609655380249,-0.03665900602936745,-11.64866733551025,-53.74362945556641,-15.89974975585938,2
2017-12-05 15:37:34.011 -0800,96,C4D50155-580C-4885-BACB-A13DEF47355A,1512517051.959201,49.27715547078363,-122.9074694934538,342.8459,-1,-1,10,65,-9999,156845.550041625,-0.1826324462890625,-0.97247314453125,-0.0400238037109375,156845.527977625,-0.0342112336792669,-0.03068600734432901,-0.004960403846381589,156845.523979625,-0.2452823579918711,-1.380498700472176,1.374513939323211,-0.00968494638800621,-0.02082605846226215,-0.01506022550165653,-0.006315946578979492,-0.00382077693939209,0.001048803329467773,XArbitraryCorrectedZVertical,0.4253054857254028,-0.5483402609825134,-0.4738661050796509,0.5421028733253479,-0.1914379596710205,-0.9807983636856079,-0.03687640279531479,-11.72112941741943,-53.76902770996094,-15.80093383789062,2
2017-12-05 15:37:34.041 -0800,97,C4D50155-580C-4885-BACB-A13DEF47355A,1512517051.959201,49.27715547078363,-122.9074694934538,342.8459,-1,-1,10,65,-9999,156845.580101625,-0.18634033203125,-0.9769287109375,-0.0370330810546875,156845.558067625,-0.05199662238714308,0.0001382180605751125,-0.01478640300433795,156845.559044625,-0.2499496451188681,-1.37732334756828,1.374028994671899,-0.03765702247619629,-0.01547651737928391,-0.001737899612635374,0.01617532968521118,0.01366263628005981,-0.004004240036010742,XArbitraryCorrectedZVertical,0.4246227145195007,-0.5485504269599915,-0.4743517935276031,0.5420010685920715,-0.1917887479066849,-0.9807037115097046,-0.03757596015930176,-11.77205371856689,-53.77228927612305,-15.98513793945312,2
2017-12-05 15:37:34.071 -0800,98,C4D50155-580C-4885-BACB-A13DEF47355A,1512517051.959201,49.27715547078363,-122.9074694934538,342.8459,-1,-1,10,65,-9999,156845.610161625,-0.1985626220703125,-0.992462158203125,-0.037994384765625,156845.588127625,-0.04419489197375595,0.02878291242935839,-0.02414475107487639,156845.594139625,-0.2569049038267218,-1.370122269081525,1.374580551628688,-0.03393525630235672,0.01743455976247787,-0.01966949552297592,-0.00986790657043457,-0.004326581954956055,0.004165053367614746,XArbitraryCorrectedZVertical,0.4246022701263428,-0.5479860901832581,-0.4748251140117645,0.5421735644340515,-0.1909835040569305,-0.9808113574981689,-0.03884831443428993,-11.47214698791504,-53.72080993652344,-16.09442138671875,2
2017-12-05 15:37:34.101 -0800,99,C4D50155-580C-4885-BACB-A13DEF47355A,1512517051.959201,49.27715547078363,-122.9074694934538,342.8459,-1,-1,10,65,-9999,156845.640220625,-0.191619873046875,-0.98931884765625,-0.0384063720703125,156845.618187625,-0.02255138179468198,-0.02117292961445697,0.001659149359119365,156845.629173625,-0.2612502221633251,-1.366647258781832,1.374721058172191,-0.02000958845019341,-0.04525092616677284,0.01553270034492016,-0.006157070398330688,-0.01475149393081665,-0.00316464900970459,XArbitraryCorrectedZVertical,0.424282431602478,-0.5479439496994019,-0.4752953946590424,0.5420543551445007,-0.1907118409872055,-0.9808387756347656,-0.039483692497015,-11.77902507781982,-53.55246734619141,-15.97784423828125,2
2017-12-05 15:37:34.131 -0800,100,C4D50155-580C-4885-BACB-A13DEF47355A,1512517051.959201,49.27715547078363,-122.9074694934538,342.8459,-1,-1,10,65,-9999,156845.670280625,-0.19000244140625,-0.97369384765625,-0.031219482421875,156845.648247625,-0.02114736326799221,6.231796950785417e-05,-0.009962353005768414,156845.664268625,-0.2634068451495067,-1.365204694783455,1.374669128832427,0.002348136156797409,0.01521777082234621,-0.02007120661437511,0.006058305501937866,0.004006743431091309,0.003102421760559082,XArbitraryCorrectedZVertical,0.4240176379680634,-0.5480186343193054,-0.4755629003047943,0.5419514775276184,-0.1907048970460892,-0.9808286428451538,-0.0397692397236824,-11.73094463348389,-53.57710647583008,-16.22372436523438,2
2017-12-05 15:37:34.161 -0800,101,C4D50155-580C-4885-BACB-A13DEF47355A,1512517051.959201,49.27715547078363,-122.9074694934538,342.8459,-1,-1,10,65,-9999,156845.700340625,-0.201416015625,-1.007659912109375,-0.039276123046875,156845.678306625,-0.01286812807115387,0.02971927986863025,0.01153255278447913,156845.699302625,-0.2625743265643669,-1.365837219736176,1.373956613121077,-0.0003535673022270203,-0.0220208503305912,0.05423656851053238,-0.01068958640098572,-0.02614641189575195,0.0005297660827636719,XArbitraryCorrectedZVertical,0.423864871263504,-0.5481270551681519,-0.4753225445747375,0.5421718955039978,-0.1914131045341492,-0.980689525604248,-0.03979060426354408,-11.59522151947021,-53.60373687744141,-16.04476928710938,2
2017-12-05 15:37:34.191 -0800,102,C4D50155-580C-4885-BACB-A13DEF47355A,1512517051.959201,49.27715547078363,-122.9074694934538,342.8459,-1,-1,10,65,-9999,156845.730400625,-0.1765289306640625,-0.98504638671875,-0.044097900390625,156845.708366625,0.00554390244121795,-0.03401921976467219,0.03511644213378484,156845.699302625,-0.2625743265643669,-1.365837219736176,1.373956613121077,-0.0003535673022270203,-0.0220208503305912,0.05423656851053238,-0.01068958640098572,-0.02614641189575195,0.0005297660827636719,XArbitraryCorrectedZVertical,0.423864871263504,-0.5481270551681519,-0.4753225445747375,0.5421718955039978,-0.1914131045341492,-0.980689525604248,-0.03979060426354408,-11.59522151947021,-53.60373687744141,-16.04476928710938,2
2017-12-05 15:37:34.225 -0800,103,C4D50155-580C-4885-BACB-A13DEF47355A,1512517051.959201,49.27715547078363,-122.9074694934538,342.8459,-1,-1,10,65,-9999,156845.760460625,-0.1903533935546875,-0.971405029296875,-0.0317535400390625,156845.738426625,0.02579937306014262,0.01489159786739608,-0.06117121234246605,156845.734398625,-0.259435986146856,-1.370119638199614,1.37351937773457,0.0164008941501379,-0.01024147775024176,-0.03688675910234451,0.01429900527000427,-0.006731271743774414,-0.005438446998596191,XArbitraryCorrectedZVertical,0.423566460609436,-0.5486924052238464,-0.4752868413925171,0.5418646335601807,-0.1920028924942017,-0.9806039333343506,-0.039056196808815,-11.72449207305908,-53.48512649536133,-15.83038330078125,2
2017-12-05 15:37:34.252 -0800,104,C4D50155-580C-4885-BACB-A13DEF47355A,1512517051.959201,49.27715547078363,-122.9074694934538,342.8459,-1,-1,10,65,-9999,156845.790519625,-0.19842529296875,-1.000534057617188,-0.0381011962890625,156845.768486625,0.04091840488463146,0.01902935125305219,-0.01408705690208314,156845.769462625,-0.252421509184235,-1.376500528271332,1.375416538237537,0.05459496378898621,0.01405569724738598,-0.01910457387566566,-0.01068609952926636,0.0003679394721984863,0.008433938026428223,XArbitraryCorrectedZVertical,0.4245859086513519,-0.5486265420913696,-0.4751409292221069,0.5412616729736328,-0.1904247552156448,-0.980974018573761,-0.03747144713997841,-11.56426048278809,-53.55336380004883,-15.93917846679688,2
2017-12-05 15:37:34.281 -0800,105,C4D50155-580C-4885-BACB-A13DEF47355A,1512517051.959201,49.27715547078363,-122.9074694934538,342.8459,-1,-1,10,65,-9999,156845.8205667917,-0.1817169189453125,-0.98687744140625,-0.0373077392578125,156845.798546625,0.01411182430022087,-0.01167822769610647,-0.01572010728251973,156845.8045457917,-0.246664858266809,-1.382470044702959,1.375679107984482,0.02657558768987656,-0.01772613823413849,-0.01331905089318752,0.0006341338157653809,-0.02536851167678833,-0.004439830780029297,XArbitraryCorrectedZVertical,0.4248320460319519,-0.5489761233329773,-0.4749068915843964,0.5409194827079773,-0.1903924345970154,-0.9810249209403992,-0.0362858958542347,-11.53797435760498,-53.47733306884766,-15.91531372070312,2
2017-12-05 15:37:34.312 -0800,106,C4D50155-580C-4885-BACB-A13DEF47355A,1512517051.959201,49.27715547078363,-122.9074694934538,342.8459,-1,-1,10,65,-9999,156845.8506267917,-0.2072906494140625,-0.97265625,-0.0324859619140625,156845.8285927917,0.04211736000738513,0.01691613292807431,-0.02151461318231413,156845.8395797917,-0.2395598814529573,-1.389420424451332,1.376768795578986,0.05646725744009018,0.01084573846310377,-0.006316205486655235,-0.005907058715820312,0.007343411445617676,0.001794636249542236,XArbitraryCorrectedZVertical,0.4254809021949768,-0.5491644144058228,-0.4746981263160706,0.5404014587402344,-0.1895885318517685,-0.9812356233596802,-0.03476889431476593,-11.52397918701172,-53.65621948242188,-15.82650756835938,2
2017-12-05 15:37:34.342 -0800,107,C4D50155-580C-4885-BACB-A13DEF47355A,1512517051.959201,49.27715547078363,-122.9074694934538,342.8459,-1,-1,10,65,-9999,156845.8806867917,-0.1970977783203125,-0.9962158203125,-0.046417236328125,156845.8586527917,0.04595337724153527,-0.006544984694978736,0.04975530601373239,156845.8746747917,-0.2281466954470599,-1.401034517614074,1.375699662753869,0.05401653051376343,-0.02638114616274834,0.05523231253027916,-0.01629170775413513,-0.008656144142150879,-0.007190227508544922,XArbitraryCorrectedZVertical,0.4255236089229584,-0.5500532984733582,-0.4738520383834839,0.5402064323425293,-0.1910142004489899,-0.9810289144515991,-0.03274205327033997,-11.40777683258057,-53.7485237121582,-15.68215942382812,2
2017-12-05 15:37:34.372 -0800,108,C4D50155-580C-4885-BACB-A13DEF47355A,1512517051.959201,49.27715547078363,-122.9074694934538,342.8459,-1,-1,10,65,-9999,156845.9107467917,-0.1764678955078125,-0.9589691162109375,-0.041015625,156845.8887127917,0.02111380743825721,-0.006428338239233266,0.009946374039227939,156845.9097397917,-0.2214181942854616,-1.408235401866526,1.375456814100161,0.03095461428165436,0.0003073941916227341,-0.01425708830356598,0.01489084959030151,0.02082252502441406,-0.01038938760757446,XArbitraryCorrectedZVertical,0.4255929589271545,-0.5506073236465454,-0.4735133051872253,0.5398844480514526,-0.1914808005094528,-0.9809818267822266,-0.03140441700816154,-11.77146053314209,-53.76514434814453,-15.57196044921875,2
2017-12-05 15:37:34.402 -0800,109,C4D50155-580C-4885-BACB-A13DEF47355A,1512517051.959201,49.27715547078363,-122.9074694934538,342.8459,-1,-1,10,65,-9999,156845.9408367917,-0.19342041015625,-0.9831085205078125,-0.0305633544921875,156845.9187727917,-0.0005763080598931472,0.03079706116178532,-0.0169526182350084,156845.9097397917,-0.2214181942854616,-1.408235401866526,1.375456814100161,0.03095461428165436,0.0003073941916227341,-0.01425708830356598,0.01489084959030151,0.02082252502441406,-0.01038938760757446,XArbitraryCorrectedZVertical,0.4255929589271545,-0.5506073236465454,-0.4735133051872253,0.5398844480514526,-0.1914808005094528,-0.9809818267822266,-0.03140441700816154,-11.77146053314209,-53.76514434814453,-15.57196044921875,2
2017-12-05 15:37:34.432 -0800,110,C4D50155-580C-4885-BACB-A13DEF47355A,1512517051.959201,49.27715547078363,-122.9074694934538,342.8459,-1,-1,10,65,-9999,156845.9708967917,-0.1977386474609375,-1.003219604492188,-0.032989501953125,156845.9488327917,-0.002789661241858002,0.03503787888162749,-0.0116657108389831,156845.9448347917,-0.2196524311007493,-1.408883575589048,1.375667215459869,0.007398251444101334,0.04489371925592422,0.002430680673569441,-0.002030223608016968,-0.0009872317314147949,0.0005159974098205566,XArbitraryCorrectedZVertical,0.425991952419281,-0.5503700971603394,-0.4732206761837006,0.5400684475898743,-0.1912986487150192,-0.9810226559638977,-0.03124722465872765,-11.44811916351318,-53.60908508300781,-15.52334594726562,2
2017-12-05 15:37:34.464 -0800,111,C4D50155-580C-4885-BACB-A13DEF47355A,1512517051.959201,49.27715547078363,-122.9074694934538,342.8459,-1,-1,10,65,-9999,156846.0009567917,-0.1856231689453125,-0.972930908203125,-0.0283203125,156845.9788917917,0.01864079605000963,0.01493234423207429,-0.07725617269432664,156845.9798687917,-0.2174030953598389,-1.410448233040508,1.37673117251568,0.0298160258680582,0.009933236055076122,-0.06317702680826187,-0.006049424409866333,-0.01890891790390015,-0.004100561141967773,XArbitraryCorrectedZVertical,0.426575630903244,-0.5501297116279602,-0.4731838405132294,0.5398848056793213,-0.1903159469366074,-0.9812284111976624,-0.03078106231987476,-11.42069911956787,-53.78185653686523,-15.46627807617188,2
2017-12-05 15:37:34.492 -0800,112,C4D50155-580C-4885-BACB-A13DEF47355A,1512517051.959201,49.27715547078363,-122.9074694934538,342.8459,-1,-1,10,65,-9999,156846.0310167917,-0.198333740234375,-0.982330322265625,-0.0194244384765625,156846.0089517917,0.05189355805295701,0.01169101086933885,-0.08728457209512902,156846.0149637917,-0.2111572696516909,-1.416534880795576,1.380138166911395,0.06424850970506668,0.003505660220980644,-0.0795748233795166,-0.001680999994277954,0.01264142990112305,0.003854513168334961,XArbitraryCorrectedZVertical,0.427921861410141,-0.54984450340271,-0.4735618531703949,0.5387770533561707,-0.1871922612190247,-0.981879711151123,-0.02910780534148216,-11.38467407226562,-53.65576934814453,-15.35601806640625,2
2017-12-05 15:37:34.522 -0800,113,C4D50155-580C-4885-BACB-A13DEF47355A,1512517051.959201,49.27715547078363,-122.9074694934538,342.8459,-1,-1,10,65,-9999,156846.0610757917,-0.1843109130859375,-1.004638671875,-0.029266357421875,156846.0390117917,0.05147064807185243,0.0168753865633961,-0.008579639767799274,156846.0500287917,-0.2000845119641277,-1.427399760366419,1.381247554791543,0.06815791875123978,0.00657227635383606,-0.005047273356467485,-0.003980010747909546,-0.01894819736480713,-0.001205325126647949,XArbitraryCorrectedZVertical,0.4287416934967041,-0.5502020120620728,-0.473157674074173,0.5381150841712952,-0.1864191591739655,-0.9820893406867981,-0.02691661193966866,-11.33177947998047,-53.95890426635742,-15.47451782226562,2
2017-12-05 15:37:34.553 -0800,114,C4D50155-580C-4885-BACB-A13DEF47355A,1512517051.959201,49.27715547078363,-122.9074694934538,342.8459,-1,-1,10,65,-9999,156846.0911357917,-0.1799774169921875,-0.9825286865234375,-0.029327392578125,156846.0690717917,0.0586923419998203,0.03283358044736891,-0.04669426865679532,156846.0851237917,-0.1877976753075681,-1.43888123657823,1.382747157174112,0.06917440891265869,0.02254434302449226,-0.05285164713859558,0.006347596645355225,-0.00685650110244751,-0.009247779846191406,XArbitraryCorrectedZVertical,0.4298717975616455,-0.5503814816474915,-0.4726604223251343,0.5374668836593628,-0.1852568686008453,-0.9823707938194275,-0.02458092384040356,-11.48703670501709,-53.75813293457031,-15.03717041015625,2
2017-12-05 15:37:34.582 -0800,115,C4D50155-580C-4885-BACB-A13DEF47355A,1512517051.959201,49.27715547078363,-122.9074694934538,342.8459,-1,-1,10,65,-9999,156846.1211957917,-0.1883697509765625,-0.980194091796875,-0.0205230712890625,156846.0991317917,0.04917313899944107,0.01695288455111741,-0.05541665385902284,156846.1201577917,-0.1772006764827566,-1.44908069405727,1.384625473556686,0.06330189108848572,-0.00291429553180933,-0.03280927240848541,-0.004687488079071045,0.003029584884643555,0.001668453216552734,XArbitraryCorrectedZVertical,0.4309552013874054,-0.5504947900772095,-0.4724441170692444,0.5366731286048889,-0.1836670190095901,-0.9827201962471008,-0.02246620133519173,-11.29579830169678,-53.77713394165039,-15.07846069335938,2
2017-12-05 15:37:34.637 -0800,116,C4D50155-580C-4885-BACB-A13DEF47355A,1512517051.959201,49.27715547078363,-122.9074694934538,342.8459,-1,-1,10,65,-9999,156846.1512557917,-0.1771697998046875,-0.9927215576171875,-0.02215576171875,156846.1292217917,0.03595640314159582,0.01164626976302552,-0.03546691413323926,156846.1201577917,-0.1772006764827566,-1.44908069405727,1.384625473556686,0.06330189108848572,-0.00291429553180933,-0.03280927240848541,-0.004687488079071045,0.003029584884643555,0.001668453216552734,XArbitraryCorrectedZVertical,0.4309552013874054,-0.5504947900772095,-0.4724441170692444,0.5366731286048889,-0.1836670190095901,-0.9827201962471008,-0.02246620133519173,-11.29579830169678,-53.77713394165039,-15.07846069335938,2
2017-12-05 15:37:34.642 -0800,117,C4D50155-580C-4885-BACB-A13DEF47355A,1512517051.959201,49.27715547078363,-122.9074694934538,342.8459,-1,-1,10,65,-9999,156846.1813157917,-0.184967041015625,-0.9803619384765625,-0.01995849609375,156846.1592817917,0.02871580076988839,0.01168062454108754,-0.04729933885646131,156846.1552537917,-0.1698969879675118,-1.456135886836518,1.386021820143207,0.03685501217842102,0.007771418429911137,-0.04177973419427872,0.005256682634353638,-0.009499728679656982,-0.001051425933837891,XArbitraryCorrectedZVertical,0.4317251741886139,-0.5505515336990356,-0.4723336398601532,0.53609299659729,-0.1824570000171661,-0.9829776883125305,-0.02101276628673077,-11.239914894104,-53.93787384033203,-15.3065185546875,2
2017-12-05 15:37:34.673 -0800,118,C4D50155-580C-4885-BACB-A13DEF47355A,1512517051.959201,49.27715547078363,-122.9074694934538,342.8459,-1,-1,10,65,-9999,156846.2113747917,-0.1940155029296875,-0.995452880859375,-0.016998291015625,156846.1893417917,0.08246185367710453,0.01248276866141941,0.04303135689350033,156846.1903177917,-0.1600092800422907,-1.465589447319687,1.386781860528389,0.08343864977359772,0.00858740322291851,0.03352351486682892,-0.00937885046005249,-0.0005407333374023438,0.007459402084350586,XArbitraryCorrectedZVertical,0.4324465692043304,-0.5508045554161072,-0.4719056785106659,0.5356285572052002,-0.1819053143262863,-0.9831170439720154,-0.01920861378312111,-10.92153549194336,-53.76683807373047,-15.02456665039062,2
2017-12-05 15:37:34.724 -0800,119,C4D50155-580C-4885-BACB-A13DEF47355A,1512517051.959201,49.27715547078363,-122.9074694934538,342.8459,-1,-1,10,65,-9999,156846.2414347917,-0.1834716796875,-1.00201416015625,-0.0185546875,156846.2194017917,0.09792576486275863,-0.003503388413999238,0.06667596631565983,156846.2254127917,-0.1373491863366272,-1.488331384077872,1.384604702204163,0.1071382313966751,-0.01060086581856012,0.07114316523075104,-0.005592256784439087,-0.02195286750793457,-0.007889151573181152,XArbitraryCorrectedZVertical,0.4326876699924469,-0.5524126887321472,-0.4702342450618744,0.5352470874786377,-0.1844254434108734,-0.9827163815498352,-0.01524320337921381,-11.27156639099121,-54.11758804321289,-14.61111450195312,2
2017-12-05 15:37:34.733 -0800,120,C4D50155-580C-4885-BACB-A13DEF47355A,1512517051.959201,49.27715547078363,-122.9074694934538,342.8459,-1,-1,10,65,-9999,156846.2714947917,-0.1880340576171875,-0.97235107421875,-0.001861572265625,156846.2494607917,0.08165837797622762,0.02726810640132132,0.08878339915662561,156846.2604477917,-0.1186021837548483,-1.506624701338263,1.381960684535689,0.09291455149650574,0.02652226760983467,0.09968478977680206,0.006004452705383301,0.004882752895355225,0.007028639316558838,XArbitraryCorrectedZVertical,0.4327980577945709,-0.5537770986557007,-0.4685235321521759,0.5352476239204407,-0.1872636079788208,-0.9822234511375427,-0.01203353237360716,-11.23351860046387,-53.79067993164062,-14.55368041992188,2
2017-12-05 15:37:34.763 -0800,121,C4D50155-580C-4885-BACB-A13DEF47355A,1512517051.959201,49.27715547078363,-122.9074694934538,342.8459,-1,-1,10,65,-9999,156846.3015547917,-0.1915740966796875,-1.000381469726562,-0.0224609375,156846.2795207917,0.05694211253142022,0.03897509623720064,0.1011170307970006,156846.2955427917,-0.1040185787204777,-1.520157314303664,1.378503589284612,0.04607665911316872,0.01284598372876644,0.09027764201164246,-0.0067577064037323,-0.01025259494781494,0.002620458602905273,XArbitraryCorrectedZVertical,0.4326668679714203,-0.5549453496932983,-0.4666778743267059,0.5357553958892822,-0.190797820687294,-0.9815686345100403,-0.009670080617070198,-11.44036483764648,-54.01351165771484,-14.4456787109375,2
2017-12-05 15:37:34.804 -0800,122,C4D50155-580C-4885-BACB-A13DEF47355A,1512517051.959201,49.27715547078363,-122.9074694934538,342.8459,-1,-1,10,65,-9999,156846.3316147917,-0.1979522705078125,-0.98333740234375,-0.011016845703125,156846.3095807917,0.0175038925806548,0.005213137833830109,0.03436862649969059,156846.3306077917,-0.09805349564788714,-1.52619982624451,1.377190665999813,0.03255612403154373,-0.01351368986070156,0.009139307774603367,-0.005398839712142944,-0.002707123756408691,-0.002503335475921631,XArbitraryCorrectedZVertical,0.4325332045555115,-0.5555427670478821,-0.4660521149635315,0.5357890725135803,-0.1921414583921432,-0.981316864490509,-0.008574522100389004,-11.57456684112549,-53.96483993530273,-14.407958984375,2
2017-12-05 15:37:34.823 -0800,123,C4D50155-580C-4885-BACB-A13DEF47355A,1512517051.959201,49.27715547078363,-122.9074694934538,342.8459,-1,-1,10,65,-9999,156846.3616737917,-0.1947479248046875,-0.9741973876953125,-0.00836181640625,156846.3396407917,0.004337224151303047,-0.002125202549883232,-0.004179032382552341,156846.3306077917,-0.09805349564788714,-1.52619982624451,1.377190665999813,0.03255612403154373,-0.01351368986070156,0.009139307774603367,-0.005398839712142944,-0.002707123756408691,-0.002503335475921631,XArbitraryCorrectedZVertical,0.4325332045555115,-0.5555427670478821,-0.4660521149635315,0.5357890725135803,-0.1921414583921432,-0.981316864490509,-0.008574522100389004,-11.57456684112549,-53.96483993530273,-14.407958984375,2
2017-12-05 15:37:34.855 -0800,124,C4D50155-580C-4885-BACB-A13DEF47355A,1512517051.959201,49.27715547078363,-122.9074694934538,342.8459,-1,-1,10,65,-9999,156846.3917337917,-0.1848602294921875,-0.9868927001953125,-0.012420654296875,156846.3697007917,-0.03973835820561735,0.00651622255520588,-0.04006885649689618,156846.3657027917,-0.09706068419421193,-1.527555443135213,1.377368839674077,-0.01809281297028065,-0.004888636991381645,-0.0173042044043541,-0.003090202808380127,0.007550477981567383,-0.0003452301025390625,XArbitraryCorrectedZVertical,0.4325446486473083,-0.5556544661521912,-0.4661248922348022,0.5356006622314453,-0.1919781416654587,-0.9813511371612549,-0.008306482806801796,-11.75947093963623,-53.92109298706055,-14.4326171875,2
2017-12-05 15:37:34.891 -0800,125,C4D50155-580C-4885-BACB-A13DEF47355A,1512517051.959201,49.27715547078363,-122.9074694934538,342.8459,-1,-1,10,65,-9999,156846.4217937917,-0.1923370361328125,-0.9650726318359375,-0.0031585693359375,156846.3997597917,-0.07117537697734871,0.03535266452247486,-0.1171535216170217,156846.4007367917,-0.1055694441940202,-1.519031792745765,1.379558610010203,-0.05571600049734116,0.02185923978686333,-0.1062065809965134,0.004525899887084961,0.002247035503387451,-0.00229954719543457,XArbitraryCorrectedZVertical,0.4328061044216156,-0.5547641515731812,-0.4671170115470886,0.5354478359222412,-0.1897523403167725,-0.9817697405815125,-0.00983122456818819,-11.40359592437744,-53.89045715332031,-14.23162841796875,2
2017-12-05 15:37:34.913 -0800,126,C4D50155-580C-4885-BACB-A13DEF47355A,1512517051.959201,49.27715547078363,-122.9074694934538,342.8459,-1,-1,10,65,-9999,156846.4518537917,-0.2070465087890625,-0.9779510498046875,0.007354736328125,156846.4298197917,-0.07603857544394241,-0.02717223260207847,-0.158871407460895,156846.4358317917,-0.1187079454560237,-1.505745598410794,1.383866193291323,-0.06034673750400543,-0.03320479393005371,-0.1585331708192825,0.009523689746856689,0.01334112882614136,0.0004947781562805176,XArbitraryCorrectedZVertical,0.4335338771343231,-0.5531819462776184,-0.4688379168510437,0.5349916815757751,-0.1853812336921692,-0.9825793504714966,-0.01207622326910496,-11.34138202667236,-53.95585632324219,-14.4581298828125,2
2017-12-05 15:37:34.976 -0800,127,C4D50155-580C-4885-BACB-A13DEF47355A,1512517051.959201,49.27715547078363,-122.9074694934538,342.8459,-1,-1,10,65,-9999,156846.4819137917,-0.1749267578125,-0.996124267578125,-0.0093841552734375,156846.4598797917,-0.0358847641082727,-0.05584249331732651,-0.2018026294974083,156846.4708657917,-0.1263297333765601,-1.499875455943385,1.390305024670735,-0.000772581435739994,-0.05768212676048279,-0.2106721997261047,-0.002299785614013672,-0.01241445541381836,0.01067078113555908,XArbitraryCorrectedZVertical,0.4346990883350372,-0.5519773364067078,-0.4711955189704895,0.533216118812561,-0.17898990213871,-0.9837555885314941,-0.01271544583141804,-10.79305362701416,-53.88655853271484,-14.47283935546875,2
2017-12-05 15:37:34.978 -0800,128,C4D50155-580C-4885-BACB-A13DEF47355A,1512517051.959201,49.27715547078363,-122.9074694934538,342.8459,-1,-1,10,65,-9999,156846.5120037917,-0.2038116455078125,-0.9912567138671875,0.0002288818359375,156846.4899397917,0.03402214924187127,-0.01255547295917857,-0.1631830652657333,156846.5059917917,-0.1206500570093306,-1.506497581879742,1.396091316930016,0.06187552213668823,-0.00604551425203681,-0.0700683519244194,-0.0185106098651886,-0.00393068790435791,0.009836256504058838,XArbitraryCorrectedZVertical,0.4363997876644135,-0.5513377785682678,-0.4725560247898102,0.531281054019928,-0.1733839362859726,-0.9847778677940369,-0.01116375811398029,-10.6285228729248,-54.10018157958984,-14.56417846679688,2
2017-12-05 15:37:35.003 -0800,129,C4D50155-580C-4885-BACB-A13DEF47355A,1512517051.959201,49.27715547078363,-122.9074694934538,342.8459,-1,-1,10,65,-9999,156846.5420637917,-0.1759185791015625,-1.006011962890625,-0.0164337158203125,156846.5199997917,0.08387545958371859,-0.01515285397033285,0.07276927888976113,156846.5410257917,-0.1025469847666177,-1.525153085120162,1.394087696133175,0.07460248470306396,-0.03072009235620499,0.09282748401165009,-0.001683264970779419,-0.02228629589080811,-0.008034825325012207,XArbitraryCorrectedZVertical,0.436413437128067,-0.5527518391609192,-0.4713182747364044,0.530899703502655,-0.1755323112010956,-0.9844276309013367,-0.008017431944608688,-10.64568424224854,-54.0329475402832,-14.298583984375,2
2017-12-05 15:37:35.053 -0800,130,C4D50155-580C-4885-BACB-A13DEF47355A,1512517051.959201,49.27715547078363,-122.9074694934538,342.8459,-1,-1,10,65,-9999,156846.5721237917,-0.1712188720703125,-0.977447509765625,-0.0132598876953125,156846.5500587917,0.06190757638387296,-0.003402720924794243,0.05324830809948032,156846.5410257917,-0.1025469847666177,-1.525153085120162,1.394087696133175,0.07460248470306396,-0.03072009235620499,0.09282748401165009,-0.001683264970779419,-0.02228629589080811,-0.008034825325012207,XArbitraryCorrectedZVertical,0.436413437128067,-0.5527518391609192,-0.4713182747364044,0.530899703502655,-0.1755323112010956,-0.9844276309013367,-0.008017431944608688,-10.64568424224854,-54.0329475402832,-14.298583984375,2
2017-12-05 15:37:35.064 -0800,131,C4D50155-580C-4885-BACB-A13DEF47355A,1512517051.959201,49.27715547078363,-122.9074694934538,342.8459,-1,-1,10,65,-9999,156846.6021837917,-0.18914794921875,-0.9771270751953125,-0.003570556640625,156846.5801187917,0.006584133163002901,0.05833121735600556,0.006643521655311667,156846.5761217917,-0.09088462510370574,-1.536587147361258,1.392567207255277,0.02633197605609894,0.03847591578960419,0.01446589827537537,0.006499439477920532,0.005887746810913086,-0.007580280303955078,XArbitraryCorrectedZVertical,0.4365111887454987,-0.553558886051178,-0.4703311622142792,0.5308537483215332,-0.1771079897880554,-0.9841591715812683,-0.006061083637177944,-10.97994804382324,-54.14049530029297,-14.39801025390625,2
2017-12-05 15:37:35.095 -0800,132,C4D50155-580C-4885-BACB-A13DEF47355A,1512517051.959201,49.27715547078363,-122.9074694934538,342.8459,-1,-1,10,65,-9999,156846.6322427917,-0.1765899658203125,-0.9994354248046875,-0.011932373046875,156846.6101787917,-0.01035090820881097,0.005351355894405221,-0.01506763281545031,156846.6111557917,-0.08856228322916118,-1.537743048384503,1.392210574117878,0.002010421827435493,0.006716304458677769,-0.005206658970564604,-0.01029348373413086,-8.070468902587891e-05,0.002465248107910156,XArbitraryCorrectedZVertical,0.4367804229259491,-0.5534337162971497,-0.4698754251003265,0.5311663150787354,-0.1774659156799316,-0.9840958714485168,-0.00586796784773469,-10.78683090209961,-54.05714416503906,-14.14913940429688,2
2017-12-05 15:37:35.136 -0800,133,C4D50155-580C-4885-BACB-A13DEF47355A,1512517051.959201,49.27715547078363,-122.9074694934538,342.8459,-1,-1,10,65,-9999,156846.6623027917,-0.1711578369140625,-0.9813690185546875,-0.01641845703125,156846.6402387917,-0.02575889301157342,-0.003051183660903783,-0.04834170010711833,156846.6462507917,-0.09007892053516968,-1.536762007293806,1.393092021134116,-0.01330365985631943,-0.01015563309192657,-0.04594231396913528,0.004627048969268799,-0.01207053661346436,-0.009139418601989746,XArbitraryCorrectedZVertical,0.4368429481983185,-0.5533190369606018,-0.470289409160614,0.5308680534362793,-0.1765935719013214,-0.9842520952224731,-0.006012564059346914,-10.76048469543457,-54.39583587646484,-14.12069702148438,2
2017-12-05 15:37:35.154 -0800,134,C4D50155-580C-4885-BACB-A13DEF47355A,1512517051.959201,49.27715547078363,-122.9074694934538,342.8459,-1,-1,10,65,-9999,156846.6923627917,-0.195159912109375,-0.990631103515625,0.00091552734375,156846.6702987917,-0.03338538742523333,0.005437642313723789,-0.03782700749126748,156846.6813157917,-0.09384714293081151,-1.533194682003726,1.394591014788053,-0.02020489983260632,0.0004315925762057304,-0.01732798293232918,-0.007978588342666626,0.006793797016143799,0.0005903244018554688,XArbitraryCorrectedZVertical,0.4370686709880829,-0.5528810620307922,-0.4708928763866425,0.5306036472320557,-0.1750963628292084,-0.9845159649848938,-0.006587016396224499,-10.58751773834229,-54.2251091003418,-14.18325805664062,2
2017-12-05 15:37:35.214 -0800,135,C4D50155-580C-4885-BACB-A13DEF47355A,1512517051.959201,49.27715547078363,-122.9074694934538,342.8459,-1,-1,10,65,-9999,156846.7224227917,-0.1749267578125,-1.001220703125,-0.0041046142578125,156846.7003887917,-0.03714790141329728,-0.004229632443263846,0.04397092012608029,156846.7164107917,-0.09820544827259495,-1.529272213058266,1.393391657741912,-0.02483248524367809,-0.02619292214512825,0.04952242225408554,-0.0118909478187561,-0.02005898952484131,0.005842745304107666,XArbitraryCorrectedZVertical,0.4364432096481323,-0.5530424118041992,-0.4708875715732574,0.5309550166130066,-0.1762499213218689,-0.9843050241470337,-0.007322831079363823,-10.59541320800781,-54.22218704223633,-14.22476196289062,2
2017-12-05 15:37:35.218 -0800,136,C4D50155-580C-4885-BACB-A13DEF47355A,1512517051.959201,49.27715547078363,-122.9074694934538,342.8459,-1,-1,10,65,-9999,156846.7524827917,-0.1562652587890625,-0.977203369140625,-0.0121917724609375,156846.7304487917,-0.03635001835070954,-0.03174221703265444,-0.005002481791604841,156846.7514447917,-0.1028918246275666,-1.52571499188944,1.393395419800474,-0.01994959823787212,-0.009090491570532322,-0.03329829499125481,0.02067214250564575,0.006568193435668945,-0.003921747207641602,XArbitraryCorrectedZVertical,0.435986191034317,-0.5531195402145386,-0.471356213092804,0.5308344960212708,-0.1762202680110931,-0.9843056797981262,-0.007949630729854107,-10.53652286529541,-54.3681640625,-14.46011352539062,2
2017-12-05 15:37:35.244 -0800,137,C4D50155-580C-4885-BACB-A13DEF47355A,1512517051.959201,49.27715547078363,-122.9074694934538,342.8459,-1,-1,10,65,-9999,156846.7825417917,-0.1859283447265625,-0.99371337890625,-0.0065155029296875,156846.7605087917,-0.04704420802403173,0.03305968282391664,-0.04120336312126994,156846.7514447917,-0.1028918246275666,-1.52571499188944,1.393395419800474,-0.01994959823787212,-0.009090491570532322,-0.03329829499125481,0.02067214250564575,0.006568193435668945,-0.003921747207641602,XArbitraryCorrectedZVertical,0.435986191034317,-0.5531195402145386,-0.471356213092804,0.5308344960212708,-0.1762202680110931,-0.9843056797981262,-0.007949630729854107,-10.53652286529541,-54.3681640625,-14.46011352539062,2
2017-12-05 15:37:35.292 -0800,138,C4D50155-580C-4885-BACB-A13DEF47355A,1512517051.959201,49.27715547078363,-122.9074694934538,342.8459,-1,-1,10,65,-9999,156846.8125884167,-0.1852264404296875,-0.9986724853515625,-0.0067138671875,156846.7905687917,-0.04510462780212702,0.0234091859817965,0.02155669112753739,156846.7865397917,-0.1090330074879876,-1.518750496323924,1.394133664110036,-0.03006869740784168,0.02693735435605049,0.003821915946900845,-0.00934898853302002,-0.008407950401306152,0.002913355827331543,XArbitraryCorrectedZVertical,0.4361439049243927,-0.5524572730064392,-0.4716541767120361,0.5311298966407776,-0.1754349619150162,-0.9844356775283813,-0.009138911031186581,-10.38238048553467,-54.27193069458008,-14.3656005859375,2
2017-12-05 15:37:35.304 -0800,139,C4D50155-580C-4885-BACB-A13DEF47355A,1512517051.959201,49.27715547078363,-122.9074694934538,342.8459,-1,-1,10,65,-9999,156846.8426484167,-0.16302490234375,-0.979827880859375,-0.015167236328125,156846.8206144167,-0.04072106464785659,-0.0008988168679017429,-0.04648600945955112,156846.8215914167,-0.1149632199772271,-1.512858619032202,1.393610652771246,-0.02978347055613995,-0.01228141784667969,-0.02179183438420296,-0.000390857458114624,-0.003922343254089355,0.002481341361999512,XArbitraryCorrectedZVertical,0.4357438087463379,-0.5522917509078979,-0.4718137681484222,0.531488835811615,-0.1758939474821091,-0.9843436479568481,-0.01020231004804373,-10.46443843841553,-54.21469497680664,-14.40948486328125,2
2017-12-05 15:37:35.335 -0800,140,C4D50155-580C-4885-BACB-A13DEF47355A,1512517051.959201,49.27715547078363,-122.9074694934538,342.8459,-1,-1,10,65,-9999,156846.8727084167,-0.1959686279296875,-0.984130859375,-0.0116729736328125,156846.8506744167,-0.04950949624511808,0.03630580987661422,-0.07846418256478659,156846.8566864167,-0.1214839285271117,-1.506165045296199,1.396205432559343,-0.03821267187595367,0.02921224385499954,-0.07182864844799042,0.0006200671195983887,0.00442051887512207,-0.008728742599487305,XArbitraryCorrectedZVertical,0.4362819194793701,-0.551408052444458,-0.472730815410614,0.5311502814292908,-0.1732732653617859,-0.9847976565361023,-0.01121449284255505,-10.69030094146729,-54.15207290649414,-14.5003662109375,2
2017-12-05 15:37:35.376 -0800,141,C4D50155-580C-4885-BACB-A13DEF47355A,1512517051.959201,49.27715547078363,-122.9074694934538,342.8459,-1,-1,10,65,-9999,156846.9027684167,-0.17340087890625,-0.988006591796875,-0.012603759765625,156846.8807344167,-0.02981408840343707,-0.002135588878134541,0.05155613554284397,156846.8917204167,-0.1271864681728902,-1.500386163926278,1.395627395565926,-0.0006552627310156822,-0.02626628056168556,0.06805096566677094,-0.01468697190284729,-0.004102945327758789,0.0006132125854492188,XArbitraryCorrectedZVertical,0.4359066188335419,-0.5512327551841736,-0.4728429615497589,0.5315405130386353,-0.1737743318080902,-0.9846971035003662,-0.01225573848932981,-10.44889068603516,-54.10040283203125,-14.49261474609375,2
2017-12-05 15:37:35.394 -0800,142,C4D50155-580C-4885-BACB-A13DEF47355A,1512517051.959201,49.27715547078363,-122.9074694934538,342.8459,-1,-1,10,65,-9999,156846.9328274167,-0.1676483154296875,-0.9821624755859375,-0.012847900390625,156846.9107944167,0.03027321737536673,-0.02769554375627904,0.02708061986057974,156846.9268164167,-0.1193658345533747,-1.509396168754403,1.394377588429339,0.03787093982100487,-0.0188455767929554,0.009221209213137627,0.01090660691261292,-0.0004763603210449219,-0.008705079555511475,XArbitraryCorrectedZVertical,0.4355690181255341,-0.5521748661994934,-0.4724189937114716,0.5312163233757019,-0.1751064509153366,-0.9844785332679749,-0.01076509524136782,-10.83580493927002,-54.16855239868164,-14.41659545898438,2
2017-12-05 15:37:35.450 -0800,143,C4D50155-580C-4885-BACB-A13DEF47355A,1512517051.959201,49.27715547078363,-122.9074694934538,342.8459,-1,-1,10,65,-9999,156846.9628874167,-0.1807708740234375,-0.9813079833984375,-0.0007171630859375,156846.9408544167,0.007484814243667699,0.007408647836491433,0.001219727779256291,156846.9618804167,-0.1147677040545059,-1.514061494488358,1.394004801379309,0.01631727069616318,-0.002909528557211161,0.02481335774064064,-0.004851609468460083,0.003562808036804199,0.009282290935516357,XArbitraryCorrectedZVertical,0.4356287121772766,-0.5524881482124329,-0.4721204042434692,0.5311073064804077,-0.175522580742836,-0.9844130277633667,-0.009968942031264305,-10.55471134185791,-54.37527084350586,-14.42630004882812,2
2017-12-05 15:37:35.454 -0800,144,C4D50155-580C-4885-BACB-A13DEF47355A,1512517051.959201,49.27715547078363,-122.9074694934538,342.8459,-1,-1,10,65,-9999,156846.9929474167,-0.177886962890625,-1.013870239257812,-0.0098876953125,156846.9709134167,0.009207879468948967,0.007371896213448339,0.0225218207065821,156846.9618804167,-0.1147677040545059,-1.514061494488358,1.394004801379309,0.01631727069616318,-0.002909528557211161,0.02481335774064064,-0.004851609468460083,0.003562808036804199,0.009282290935516357,XArbitraryCorrectedZVertical,0.4356287121772766,-0.5524881482124329,-0.4721204042434692,0.5311073064804077,-0.175522580742836,-0.9844130277633667,-0.009968942031264305,-10.55471134185791,-54.37527084350586,-14.42630004882812,2
2017-12-05 15:37:35.484 -0800,145,C4D50155-580C-4885-BACB-A13DEF47355A,1512517051.959201,49.27715547078363,-122.9074694934538,342.8459,-1,-1,10,65,-9999,156847.0230074167,-0.17462158203125,-0.986419677734375,-0.0049896240234375,156847.0009734167,0.005782255358780042,-0.004219246115012537,-0.02436419554869892,156846.9969754167,-0.1101592956373916,-1.518699692603164,1.393448372469941,0.02214565686881542,-0.008170102722942829,-0.002739588730037212,-0.002000689506530762,-0.02877700328826904,-0.0001398324966430664,XArbitraryCorrectedZVertical,0.4356462061405182,-0.5528297424316406,-0.4717670977115631,0.5310516357421875,-0.1761151850223541,-0.984315037727356,-0.009183318354189396,-10.50627899169922,-54.30989074707031,-14.37396240234375,2
2017-12-05 15:37:35.537 -0800,146,C4D50155-580C-4885-BACB-A13DEF47355A,1512517051.959201,49.27715547078363,-122.9074694934538,342.8459,-1,-1,10,65,-9999,156847.0530674167,-0.1855316162109375,-0.9780120849609375,0.0005035400390625,156847.0310334167,-0.04119457468967268,0.006488259363760048,-0.01988901965292977,156847.0320104167,-0.1102912169792644,-1.519041951391328,1.394312765249029,-0.02341694571077824,-0.009102588519454002,-0.0195363461971283,-0.003549367189407349,0.004624009132385254,0.007598876953125,XArbitraryCorrectedZVertical,0.435779482126236,-0.5527718663215637,-0.4720935225486755,0.530712366104126,-0.1752683818340302,-0.9844671487808228,-0.009079013951122761,-10.31452083587646,-54.14719772338867,-14.31155395507812,2
2017-12-05 15:37:35.544 -0800,147,C4D50155-580C-4885-BACB-A13DEF47355A,1512517051.959201,49.27715547078363,-122.9074694934538,342.8459,-1,-1,10,65,-9999,156847.0831574167,-0.169342041015625,-0.99591064453125,-0.0140533447265625,156847.0610934167,-0.04784954793767169,0.008603874533718995,-0.006181196890073912,156847.0671054167,-0.117163368762362,-1.512222192794359,1.394507002104325,-0.03438383340835571,-0.0006222198717296124,-0.001639835070818663,-0.007971882820129395,0.002842307090759277,0.003274321556091309,XArbitraryCorrectedZVertical,0.4355474710464478,-0.5524191856384277,-0.4724805653095245,0.5309255719184875,-0.1750115156173706,-0.9845012426376343,-0.01026288792490959,-10.5032901763916,-54.42891693115234,-14.43289184570312,2
2017-12-05 15:37:35.574 -0800,148,C4D50155-580C-4885-BACB-A13DEF47355A,1512517051.959201,49.27715547078363,-122.9074694934538,342.8459,-1,-1,10,65,-9999,156847.1132174167,-0.17181396484375,-0.9806365966796875,-0.01629638671875,156847.0911534167,-0.002800846518436335,-0.03708158870215431,-0.03098321612198186,156847.1021704167,-0.1178629904689771,-1.512787992341464,1.395018437440012,0.01933451369404793,-0.04312979429960251,-0.03265400975942612,0.007630288600921631,-0.004255056381225586,-0.004254341125488281,XArbitraryCorrectedZVertical,0.4353694319725037,-0.5526174902915955,-0.4729161858558655,0.5304774045944214,-0.1745156794786453,-0.9845908284187317,-0.0101347342133522,-10.51481914520264,-54.27711868286133,-14.29122924804688,2
2017-12-05 15:37:35.612 -0800,149,C4D50155-580C-4885-BACB-A13DEF47355A,1512517051.959201,49.27715547078363,-122.9074694934538,342.8459,-1,-1,10,65,-9999,156847.1432774167,-0.1859893798828125,-0.988494873046875,-0.007110595703125,156847.1212124167,-0.009017729767117309,0.005369731705926768,-0.02886866621645894,156847.1372654167,-0.1164362689273096,-1.514562982361404,1.395817800498296,-0.002377612516283989,0.008853194303810596,0.001101954141631722,-0.004445135593414307,0.002094745635986328,-0.001587092876434326,XArbitraryCorrectedZVertical,0.435576468706131,-0.5526145100593567,-0.4731236100196838,0.5301254391670227,-0.1737470030784607,-0.9847303032875061,-0.009780686348676682,-10.56663227081299,-54.56031799316406,-14.60491943359375,2
2017-12-05 15:37:35.635 -0800,150,C4D50155-580C-4885-BACB-A13DEF47355A,1512517051.959201,49.27715547078363,-122.9074694934538,342.8459,-1,-1,10,65,-9999,156847.1733374167,-0.172821044921875,-0.9906158447265625,-0.0123138427734375,156847.1512724167,-0.01360449211256078,0.01057168426317854,0.0444417670068063,156847.1722994167,-0.1166816541280405,-1.514192293410514,1.394780881582797,-0.00773119181394577,0.00144273042678833,-7.769418880343437e-05,0.001103878021240234,-0.005608856678009033,-0.001708984375,XArbitraryCorrectedZVertical,0.4352947473526001,-0.5527811646461487,-0.4728489518165588,0.5304282307624817,-0.1747641414403915,-0.9845492243766785,-0.009902933612465858,-10.59580326080322,-54.22349166870117,-14.45703125,2
2017-12-05 15:37:35.690 -0800,151,C4D50155-580C-4885-BACB-A13DEF47355A,1512517051.959201,49.27715547078363,-122.9074694934538,342.8459,-1,-1,10,65,-9999,156847.2033964167,-0.1633758544921875,-0.9674530029296875,-0.018218994140625,156847.1813324167,-0.0154436711613695,0.02773948591426535,-0.07679171740021681,156847.1722994167,-0.1166816541280405,-1.514192293410514,1.394780881582797,-0.00773119181394577,0.00144273042678833,-7.769418880343437e-05,0.001103878021240234,-0.005608856678009033,-0.001708984375,XArbitraryCorrectedZVertical,0.4352947473526001,-0.5527811646461487,-0.4728489518165588,0.5304282307624817,-0.1747641414403915,-0.9845492243766785,-0.009902933612465858,-10.59580326080322,-54.22349166870117,-14.45703125,2
2017-12-05 15:37:35.695 -0800,152,C4D50155-580C-4885-BACB-A13DEF47355A,1512517051.959201,49.27715547078363,-122.9074694934538,342.8459,-1,-1,10,65,-9999,156847.2334564167,-0.191680908203125,-0.987213134765625,-0.0066375732421875,156847.2113924167,-0.01355841942570241,0.0234731018479584,-0.06506848228168802,156847.2073944167,-0.1180495106981628,-1.512210598767506,1.397354603780729,-0.00287020206451416,0.01640667021274567,-0.08184392750263214,0.009694308042526245,0.01635348796844482,-0.008621573448181152,XArbitraryCorrectedZVertical,0.4361347258090973,-0.552029013633728,-0.4734194874763489,0.5300129055976868,-0.1722156405448914,-0.9849966764450073,-0.01010093837976456,-10.30514335632324,-54.39974594116211,-14.46038818359375,2
2017-12-05 15:37:35.725 -0800,153,C4D50155-580C-4885-BACB-A13DEF47355A,1512517051.959201,49.27715547078363,-122.9074694934538,342.8459,-1,-1,10,65,-9999,156847.2635164167,-0.1723175048828125,-1.001754760742188,-0.017364501953125,156847.2414524167,-0.0242930891475938,0.01810337014203164,-0.007849933629117562,156847.2424284167,-0.1191315078007208,-1.510529679544453,1.398548717286728,-0.01178006641566753,0.01418512687087059,-0.00756882643327117,-0.02255097031593323,-0.01124268770217896,0.00223231315612793,XArbitraryCorrectedZVertical,0.4365817904472351,-0.5515764951705933,-0.4736368358135223,0.5299214720726013,-0.1710220277309418,-0.9852020144462585,-0.01031942013651133,-10.32621097564697,-54.31108093261719,-14.62960815429688,2
2017-12-05 15:37:35.774 -0800,154,C4D50155-580C-4885-BACB-A13DEF47355A,1512517051.959201,49.27715547078363,-122.9074694934538,342.8459,-1,-1,10,65,-9999,156847.2935764167,-0.1599578857421875,-0.9806976318359375,-0.0154571533203125,156847.2715124167,-0.01388465665923712,0.01602370764678876,-0.05020324970908372,156847.2775544167,-0.1213927219971085,-1.508077914131957,1.399348338439528,0.0006737504154443741,0.007857818156480789,-0.04670265316963196,0.007826000452041626,-0.01192986965179443,-0.009940505027770996,XArbitraryCorrectedZVertical,0.4367721676826477,-0.5512580275535583,-0.4738985598087311,0.5298620462417603,-0.1702100038528442,-0.9853387475013733,-0.01068932097405195,-10.03085613250732,-54.37749862670898,-14.49545288085938,2
2017-12-05 15:37:35.785 -0800,155,C4D50155-580C-4885-BACB-A13DEF47355A,1512517051.959201,49.27715547078363,-122.9074694934538,342.8459,-1,-1,10,65,-9999,156847.3236364167,-0.174163818359375,-0.9908294677734375,-0.0070648193359375,156847.3016024167,-0.01858167387380987,0.02766598266817916,-0.02473757073352803,156847.3125884167,-0.1218111099817494,-1.507114196305354,1.400517602306308,-0.008526405319571495,0.01737009547650814,-0.009626654908061028,-0.001145929098129272,-0.0001496672630310059,0.001426458358764648,XArbitraryCorrectedZVertical,0.4372263848781586,-0.5508566498756409,-0.4740872383117676,0.5297362804412842,-0.1690506041049957,-0.985537588596344,-0.01078007929027081,-10.02053928375244,-54.32738494873047,-14.48178100585938,2
2017-12-05 15:37:35.815 -0800,156,C4D50155-580C-4885-BACB-A13DEF47355A,1512517051.959201,49.27715547078363,-122.9074694934538,342.8459,-1,-1,10,65,-9999,156847.3536954167,-0.16241455078125,-0.9929656982421875,-0.006805419921875,156847.3316624167,-0.05275908540723277,0.003260508122584011,0.0256206749509983,156847.3476834167,-0.1280029256834016,-1.501022210652026,1.399720991524983,-0.04359401017427444,-0.01339046284556389,0.03006290644407272,0.003979414701461792,-0.006922602653503418,0.0006951093673706055,XArbitraryCorrectedZVertical,0.4367323219776154,-0.5507563948631287,-0.4742003977298737,0.5301467776298523,-0.1697661727666855,-0.9854022860527039,-0.01186454482376575,-10.01382064819336,-54.493408203125,-14.538818359375,2
2017-12-05 15:37:35.856 -0800,157,C4D50155-580C-4885-BACB-A13DEF47355A,1512517051.959201,49.27715547078363,-122.9074694934538,342.8459,-1,-1,10,65,-9999,156847.3837554167,-0.16168212890625,-0.99664306640625,-0.01312255859375,156847.3617224167,-0.03908375320967587,-0.009426791310553479,-0.02307895400662668,156847.3827184167,-0.1335771635003684,-1.495968642277436,1.400323973076919,-0.00255880132317543,-0.001677961554378271,-0.04784787818789482,0.007917851209640503,-0.01184022426605225,-0.0001699924468994141,XArbitraryCorrectedZVertical,0.4365735352039337,-0.5505130290985107,-0.4747219979763031,0.5300635695457458,-0.1691116839647293,-0.9855047464370728,-0.01267790608108044,-10.06141185760498,-54.3665885925293,-14.61166381835938,2
2017-12-05 15:37:35.875 -0800,158,C4D50155-580C-4885-BACB-A13DEF47355A,1512517051.959201,49.27715547078363,-122.9074694934538,342.8459,-1,-1,10,65,-9999,156847.4138154167,-0.182891845703125,-0.9921112060546875,-0.00823974609375,156847.3917814167,0.01887222474873751,0.004259193531363725,-0.03686400844109483,156847.3827184167,-0.1335771635003684,-1.495968642277436,1.400323973076919,-0.00255880132317543,-0.001677961554378271,-0.04784787818789482,0.007917851209640503,-0.01184022426605225,-0.0001699924468994141,XArbitraryCorrectedZVertical,0.4365735352039337,-0.5505130290985107,-0.4747219979763031,0.5300635695457458,-0.1691116839647293,-0.9855047464370728,-0.01267790608108044,-10.06141185760498,-54.3665885925293,-14.61166381835938,2
2017-12-05 15:37:35.931 -0800,159,C4D50155-580C-4885-BACB-A13DEF47355A,1512517051.959201,49.27715547078363,-122.9074694934538,342.8459,-1,-1,10,65,-9999,156847.4438754167,-0.1768341064453125,-0.991973876953125,-0.012359619140625,156847.4218414167,0.02215430447615117,-0.007493336359155952,0.01102655217736408,156847.4178134167,-0.1271748299207633,-1.502431336412351,1.401067501750875,0.03792617470026016,-0.009303989820182323,0.009243525564670563,-0.01424935460090637,-0.006389021873474121,0.003767967224121094,XArbitraryCorrectedZVertical,0.4370206296443939,-0.5506774187088013,-0.4746188819408417,0.52961665391922,-0.1684593856334686,-0.9856306314468384,-0.01153469923883677,-10.01721858978271,-54.13683319091797,-14.57443237304688,2
2017-12-05 15:37:35.936 -0800,160,C4D50155-580C-4885-BACB-A13DEF47355A,1512517051.959201,49.27715547078363,-122.9074694934538,342.8459,-1,-1,10,65,-9999,156847.4739354167,-0.1733245849609375,-0.977142333984375,-0.0202178955078125,156847.4519014167,0.009140501493369962,0.01805783008739128,-0.02637541480392676,156847.4528784167,-0.1214858566462146,-1.508294415161785,1.401113745777921,0.02036834880709648,0.005656050518155098,-0.01762692630290985,-0.005899190902709961,-0.00397038459777832,-0.003707766532897949,XArbitraryCorrectedZVertical,0.4372099936008453,-0.5509768128395081,-0.4744056463241577,0.5293399095535278,-0.16847825050354,-0.985638439655304,-0.01054394617676735,-10.05677890777588,-54.2830696105957,-14.46664428710938,2
2017-12-05 15:37:35.965 -0800,161,C4D50155-580C-4885-BACB-A13DEF47355A,1512517051.959201,49.27715547078363,-122.9074694934538,342.8459,-1,-1,10,65,-9999,156847.5039944167,-0.17724609375,-0.9800567626953125,-0.0146026611328125,156847.4819614167,0.02964258082923597,0.02015187365252059,-0.03769012101123741,156847.4879734167,-0.1154011703617088,-1.513845284888711,1.402305700201237,0.04202902317047119,0.01091467402875423,-0.03210798278450966,-0.009473532438278198,0.009566426277160645,-0.01238518953323364,XArbitraryCorrectedZVertical,0.4379162192344666,-0.5508707165718079,-0.4743055999279022,0.5289560556411743,-0.1673605740070343,-0.9858390092849731,-0.009541677311062813,-10.08091163635254,-54.31616592407227,-14.38320922851562,2
2017-12-05 15:37:36.016 -0800,162,C4D50155-580C-4885-BACB-A13DEF47355A,1512517051.959201,49.27715547078363,-122.9074694934538,342.8459,-1,-1,10,65,-9999,156847.5340544167,-0.174285888671875,-0.9881439208984375,-0.008758544921875,156847.5120214167,0.0443176637000086,0.006310892835160771,-0.02788063345203954,156847.5230074167,-0.1045489203345913,-1.524554315666911,1.403376553220446,0.05447350442409515,-0.003974026534706354,-0.01808472350239754,-0.008787333965301514,0.0002697110176086426,-0.004995226860046387,XArbitraryCorrectedZVertical,0.4386763572692871,-0.5511016249656677,-0.4740511476993561,0.5283135175704956,-0.1663988083600998,-0.9860180020332336,-0.00770010519772768,-9.985935211181641,-54.21426773071289,-14.41427612304688,2
2017-12-05 15:37:36.025 -0800,163,C4D50155-580C-4885-BACB-A13DEF47355A,1512517051.959201,49.27715547078363,-122.9074694934538,342.8459,-1,-1,10,65,-9999,156847.5641144167,-0.1722869873046875,-1.001144409179688,-0.015350341796875,156847.5420804167,0.04499091082358064,-0.002206695279239657,-0.00980895492697985,156847.5581024167,-0.09291485660948177,-1.53630846024465,1.403679133136427,0.05112075433135033,-0.009278464131057262,-0.01177769247442484,-0.008654266595840454,-0.01580846309661865,-0.005130767822265625,XArbitraryCorrectedZVertical,0.4391855299472809,-0.5515879988670349,-0.4736348092556,0.5277562737464905,-0.1661809384822845,-0.9860683679580688,-0.005733499769121408,-9.988554000854492,-54.41598129272461,-14.20150756835938,2
