loggingTime(txt),loggingSample(N),identifierForVendor(txt),locationTimestamp_since1970(s),locationLatitude(WGS84),locationLongitude(WGS84),locationAltitude(m),locationSpeed(m/s),locationCourse(°),locationVerticalAccuracy(m),locationHorizontalAccuracy(m),locationFloor(Z),accelerometerTimestamp_sinceReboot(s),accelerometerAccelerationX(G),accelerometerAccelerationY(G),accelerometerAccelerationZ(G),gyroTimestamp_sinceReboot(s),gyroRotationX(rad/s),gyroRotationY(rad/s),gyroRotationZ(rad/s),motionTimestamp_sinceReboot(s),motionYaw(rad),motionRoll(rad),motionPitch(rad),motionRotationRateX(rad/s),motionRotationRateY(rad/s),motionRotationRateZ(rad/s),motionUserAccelerationX(G),motionUserAccelerationY(G),motionUserAccelerationZ(G),motionAttitudeReferenceFrame(txt),motionQuaternionX(R),motionQuaternionY(R),motionQuaternionZ(R),motionQuaternionW(R),motionGravityX(G),motionGravityY(G),motionGravityZ(G),motionMagneticFieldX(µT),motionMagneticFieldY(µT),motionMagneticFieldZ(µT),motionMagneticFieldCalibrationAccuracy(Z)
2017-12-04 17:02:36.574 -0800,1,C4D50155-580C-4885-BACB-A13DEF47355A,1512435751.936279,49.27718730712899,-122.9073973669521,343.0365,-1,-1,10,65,-9999,117267.9621460417,-0.163848876953125,-0.993072509765625,-0.0749359130859375,117267.9360840417,-0.3086284124071028,0.472615486005931,0.1443284173801903,117267.9571110417,-1.167198183971665,-0.6177603402502702,1.343315078977363,-0.2926497459411621,0.6808422803878784,0.2432556450366974,-0.0316193699836731,-0.004049181938171387,0.04342645406723022,XArbitraryCorrectedZVertical,-0.363584041595459,0.525257408618927,0.5687942504882812,-0.51805180311203,-0.1306120753288269,-0.9742375016212463,-0.1838226020336151,-11.18899154663086,-58.95746612548828,-25.10980224609375,2
2017-12-04 17:02:36.606 -0800,2,C4D50155-580C-4885-BACB-A13DEF47355A,1512435751.936279,49.27718730712899,-122.9073973669521,343.0365,-1,-1,10,65,-9999,117267.9922060417,-0.1097869873046875,-0.9611968994140625,-0.26611328125,117267.9661440417,-0.1299308358950039,0.4765023696169016,0.1189255890063605,117267.9571110417,-1.167198183971665,-0.6177603402502702,1.343315078977363,-0.2926497459411621,0.6808422803878784,0.2432556450366974,-0.0316193699836731,-0.004049181938171387,0.04342645406723022,XArbitraryCorrectedZVertical,-0.363584041595459,0.525257408618927,0.5687942504882812,-0.51805180311203,-0.1306120753288269,-0.9742375016212463,-0.1838226020336151,-11.18899154663086,-58.95746612548828,-25.10980224609375,2
2017-12-04 17:02:36.608 -0800,3,C4D50155-580C-4885-BACB-A13DEF47355A,1512435751.936279,49.27718730712899,-122.9073973669521,343.0365,-1,-1,10,65,-9999,117268.0222660417,-0.1109161376953125,-0.9580841064453125,-0.163726806640625,117267.9962350417,-0.1346933668723926,-0.2552328314993411,-0.1126474530526076,117267.9922060417,-1.171710419689535,-0.6044683064178816,1.338364739095936,-0.120891273021698,-0.1540516912937164,-0.09591067582368851,0.02110964059829712,0.01191228628158569,-0.07660484313964844,XArbitraryCorrectedZVertical,-0.3643822073936462,0.5219879150390625,0.5678712129592896,-0.5217946171760559,-0.1308966428041458,-0.9731091856956482,-0.1895084530115128,-11.19866561889648,-58.86360931396484,-25.4315185546875,2
2017-12-04 17:02:36.641 -0800,4,C4D50155-580C-4885-BACB-A13DEF47355A,1512435751.936279,49.27718730712899,-122.9073973669521,343.0365,-1,-1,10,65,-9999,117268.0523260417,-0.13043212890625,-0.9780426025390625,-0.2066192626953125,117268.0262940417,0.0007030745277809188,-0.04563512949127081,0.00628399490815097,117268.0272710417,-1.186034542517309,-0.5977901402313777,1.338081330755001,0.01111100614070892,-0.09079132229089737,-0.008234772831201553,0.01886749267578125,0.01495975255966187,0.02687990665435791,XArbitraryCorrectedZVertical,-0.3624384701251984,0.5228145122528076,0.5704060792922974,-0.5195512175559998,-0.1297836154699326,-0.9730438590049744,-0.1906066834926605,-11.03623199462891,-58.70147323608398,-25.66766357421875,2
2017-12-04 17:02:36.658 -0800,5,C4D50155-580C-4885-BACB-A13DEF47355A,1512435751.936279,49.27718730712899,-122.9073973669521,343.0365,-1,-1,10,65,-9999,117268.0823860417,-0.1382293701171875,-0.971649169921875,-0.189666748046875,117268.0563540417,-0.004253334576965551,0.006374009752995648,0.001000283305433762,117268.0623660417,-1.181426560256871,-0.6023861527824316,1.337893476149874,0.01135041378438473,-0.003816805314272642,0.00367735605686903,-0.002508074045181274,-0.001242637634277344,0.002033710479736328,XArbitraryCorrectedZVertical,-0.3622650504112244,0.5231485366821289,0.5700543522834778,-0.5197221040725708,-0.1307621747255325,-0.9730005264282227,-0.1901592910289764,-11.31066799163818,-58.79305267333984,-25.5948486328125,2
2017-12-04 17:02:36.688 -0800,6,C4D50155-580C-4885-BACB-A13DEF47355A,1512435751.936279,49.27718730712899,-122.9073973669521,343.0365,-1,-1,10,65,-9999,117268.1124460417,-0.1384429931640625,-0.9802703857421875,-0.18084716796875,117268.0864140417,0.0487574195532797,-0.05413753758745778,-0.05346881783773888,117268.0974000417,-1.181889011092314,-0.6040209979918252,1.339903567031725,0.05801656097173691,-0.0579477995634079,-0.05195724964141846,-0.00707697868347168,0.002866148948669434,0.0002101659774780273,XArbitraryCorrectedZVertical,-0.3624061644077301,0.5239216685295105,0.5703330636024475,-0.5185380578041077,-0.1299622058868408,-0.9734624624252319,-0.1883357167243958,-11.10807418823242,-58.73721694946289,-25.46035766601562,2
2017-12-04 17:02:36.740 -0800,7,C4D50155-580C-4885-BACB-A13DEF47355A,1512435751.936279,49.27718730712899,-122.9073973669521,343.0365,-1,-1,10,65,-9999,117268.1425050417,-0.1313323974609375,-0.978729248046875,-0.2001800537109375,117268.1164740417,0.02172127448290428,0.02340039755019924,-0.06867067397212918,117268.1324960417,-1.186396955518465,-0.5999087074292953,1.342153762272695,0.01358409039676189,0.01218635588884354,-0.0526086688041687,-0.0139259397983551,-0.006386995315551758,-0.008632838726043701,XArbitraryCorrectedZVertical,-0.3632125854492188,0.5239714384078979,0.5705987215042114,-0.5176308751106262,-0.1279503107070923,-0.9739749431610107,-0.1870611011981964,-11.20902442932129,-59.03170013427734,-25.30471801757812,2
2017-12-04 17:02:36.748 -0800,8,C4D50155-580C-4885-BACB-A13DEF47355A,1512435751.936279,49.27718730712899,-122.9073973669521,343.0365,-1,-1,10,65,-9999,117268.1725960417,-0.123199462890625,-0.9714508056640625,-0.1873779296875,117268.1465340417,-0.0316063958170604,-0.06565277982485139,-0.03902915840732925,117268.1675600417,-1.19120987087773,-0.5973006944007474,1.34243643435637,-0.005829840898513794,-0.07272885739803314,-0.009568985551595688,0.01285135746002197,-0.002920269966125488,-0.002377629280090332,XArbitraryCorrectedZVertical,-0.3627981543540955,0.5242079496383667,0.5713499188423157,-0.5168530344963074,-0.1273075491189957,-0.9740390181541443,-0.1871670484542847,-11.12951278686523,-58.9610595703125,-25.39328002929688,2
2017-12-04 17:02:36.778 -0800,9,C4D50155-580C-4885-BACB-A13DEF47355A,1512435751.936279,49.27718730712899,-122.9073973669521,343.0365,-1,-1,10,65,-9999,117268.2026560417,-0.13653564453125,-0.9866180419921875,-0.19293212890625,117268.1765930417,0.0135581531095934,-5.512743456464023e-05,0.0162032047042601,117268.1675600417,-1.19120987087773,-0.5973006944007474,1.34243643435637,-0.005829840898513794,-0.07272885739803314,-0.009568985551595688,0.01285135746002197,-0.002920269966125488,-0.002377629280090332,XArbitraryCorrectedZVertical,-0.3627981543540955,0.5242079496383667,0.5713499188423157,-0.5168530344963074,-0.1273075491189957,-0.9740390181541443,-0.1871670484542847,-11.12951278686523,-58.9610595703125,-25.39328002929688,2
2017-12-04 17:02:36.825 -0800,10,C4D50155-580C-4885-BACB-A13DEF47355A,1512435751.936279,49.27718730712899,-122.9073973669521,343.0365,-1,-1,10,65,-9999,117268.2327150417,-0.120574951171875,-0.9687347412109375,-0.18463134765625,117268.2066530417,0.01337732447157702,-0.03824965115626306,0.01504419699785762,117268.2026560417,-1.18500102830765,-0.60330826588367,1.342751152864912,0.03536296263337135,0.006694811396300793,0.03392511233687401,-0.008279621601104736,-0.0125078558921814,-0.006785273551940918,XArbitraryCorrectedZVertical,-0.3628246188163757,0.5246759653091431,0.5708127617835999,-0.5169532299041748,-0.1282560229301453,-0.9741101861000061,-0.1861468553543091,-11.06078720092773,-58.81783294677734,-25.35595703125,2
2017-12-04 17:02:36.838 -0800,11,C4D50155-580C-4885-BACB-A13DEF47355A,1512435751.936279,49.27718730712899,-122.9073973669521,343.0365,-1,-1,10,65,-9999,117268.2627750417,-0.1349029541015625,-0.9856719970703125,-0.1805572509765625,117268.2367130417,0.02408429731813159,-0.02660418034156457,0.01633369959767398,117268.2376900417,-1.180150511248317,-0.6102099891524063,1.343063840652269,0.03423397615551949,-0.04739201813936234,0.02207542024552822,0.008788555860519409,0.005446076393127441,0.0003768205642700195,XArbitraryCorrectedZVertical,-0.3622417151927948,0.5256204605102539,0.5707891583442688,-0.516428530216217,-0.1293635219335556,-0.9741808176040649,-0.1850081384181976,-11.10846328735352,-58.5984992980957,-25.2886962890625,2
2017-12-04 17:02:36.902 -0800,12,C4D50155-580C-4885-BACB-A13DEF47355A,1512435751.936279,49.27718730712899,-122.9073973669521,343.0365,-1,-1,10,65,-9999,117268.2928350417,-0.137664794921875,-0.977630615234375,-0.18841552734375,117268.2667730417,-0.0121128555860074,0.04454057028324823,0.03178908866783983,117268.2727850417,-1.174467763851024,-0.6153670375938153,1.343024709397574,0.0002799611538648605,0.03648026287555695,0.035475704818964,-0.01147708296775818,-0.01346838474273682,0.002714097499847412,XArbitraryCorrectedZVertical,-0.3622503578662872,0.5259179472923279,0.5702579617500305,-0.5167064666748047,-0.1303381025791168,-0.9741719961166382,-0.1843699812889099,-11.0760498046875,-58.68830871582031,-25.10794067382812,2
2017-12-04 17:02:36.905 -0800,13,C4D50155-580C-4885-BACB-A13DEF47355A,1512435751.936279,49.27718730712899,-122.9073973669521,343.0365,-1,-1,10,65,-9999,117268.3228950417,-0.1320953369140625,-0.97625732421875,-0.1829833984375,117268.2968330417,-0.03084553069362476,0.02022697479526082,0.0005422195979401329,117268.3078190417,-1.173910353500148,-0.6151445824206491,1.342280787773979,-0.0152259124442935,0.001554377377033234,8.688773959875107e-06,-0.002860009670257568,0.003514289855957031,-0.004690945148468018,XArbitraryCorrectedZVertical,-0.362190455198288,0.5256639122962952,0.570122241973877,-0.5171566009521484,-0.1307154595851898,-0.9740037322044373,-0.1849910467863083,-11.31848621368408,-58.92610549926758,-25.17889404296875,2
2017-12-04 17:02:36.928 -0800,14,C4D50155-580C-4885-BACB-A13DEF47355A,1512435751.936279,49.27718730712899,-122.9073973669521,343.0365,-1,-1,10,65,-9999,117268.3529550417,-0.1301116943359375,-0.96746826171875,-0.1912841796875,117268.3268930417,-0.04183213545463765,0.002196308950988348,0.01199434491749887,117268.3429450417,-1.17481787146598,-0.6145309958090013,1.34146831345825,-0.03173556551337242,0.002617205493152142,0.02629450149834156,-0.0003201663494110107,-0.003734946250915527,-0.003094673156738281,XArbitraryCorrectedZVertical,-0.3618320524692535,0.5255652070045471,0.5702991485595703,-0.5173126459121704,-0.1310580372810364,-0.973819375038147,-0.1857175529003143,-11.31181049346924,-58.8265266418457,-25.11993408203125,2
2017-12-04 17:02:36.977 -0800,15,C4D50155-580C-4885-BACB-A13DEF47355A,1512435751.936279,49.27718730712899,-122.9073973669521,343.0365,-1,-1,10,65,-9999,117268.3830140417,-0.1415557861328125,-0.97265625,-0.19305419921875,117268.3569520417,-0.0203809055062674,0.0403381020831032,0.01673690218671198,117268.3779790417,-1.173155908788462,-0.6155781559779597,1.340897241541573,0.01148578338325024,0.000452803447842598,-0.002689660061150789,-0.005266755819320679,0.004466354846954346,-0.008819758892059326,XArbitraryCorrectedZVertical,-0.3617630302906036,0.525461733341217,0.5700955986976624,-0.5176904797554016,-0.1315740495920181,-0.9736893773078918,-0.1860349476337433,-11.34841537475586,-58.80697631835938,-25.18270874023438,2
2017-12-04 17:02:36.988 -0800,16,C4D50155-580C-4885-BACB-A13DEF47355A,1512435751.936279,49.27718730712899,-122.9073973669521,343.0365,-1,-1,10,65,-9999,117268.4130740417,-0.1320953369140625,-0.9841156005859375,-0.1840667724609375,117268.3870120417,-0.0126574720289286,-0.03920119861374837,-0.01840830208684571,117268.3779790417,-1.173155908788462,-0.6155781559779597,1.340897241541573,0.01148578338325024,0.000452803447842598,-0.002689660061150789,-0.005266755819320679,0.004466354846954346,-0.008819758892059326,XArbitraryCorrectedZVertical,-0.3617630302906036,0.525461733341217,0.5700955986976624,-0.5176904797554016,-0.1315740495920181,-0.9736893773078918,-0.1860349476337433,-11.34841537475586,-58.80697631835938,-25.18270874023438,2
2017-12-04 17:02:37.018 -0800,17,C4D50155-580C-4885-BACB-A13DEF47355A,1512435751.936279,49.27718730712899,-122.9073973669521,343.0365,-1,-1,10,65,-9999,117268.4431340417,-0.131439208984375,-0.9727325439453125,-0.18365478515625,117268.4170720417,-0.02646356543600838,0.01492355580047703,-0.006834203989361341,117268.4130740417,-1.175418383729959,-0.6150176290828927,1.340897330648108,-0.02482801303267479,-0.03341841325163841,-0.00982445664703846,-0.0006262362003326416,-0.01042616367340088,0.002040982246398926,XArbitraryCorrectedZVertical,-0.3613282144069672,0.5257261991500854,0.5705798864364624,-0.5171915888786316,-0.1314691156148911,-0.9736894369125366,-0.1861077696084976,-11.08703422546387,-58.81553268432617,-25.26040649414062,2
2017-12-04 17:02:37.059 -0800,18,C4D50155-580C-4885-BACB-A13DEF47355A,1512435751.936279,49.27718730712899,-122.9073973669521,343.0365,-1,-1,10,65,-9999,117268.4731940417,-0.1280975341796875,-0.9827728271484375,-0.1986236572265625,117268.4471320417,0.01936837165981927,0.05936186069786622,0.007945807428360416,117268.4481080417,-1.173620471743353,-0.6151053812678627,1.3409559165518,0.03283419460058212,0.06720055639743805,0.01594409719109535,1.385807991027832e-05,0.0009702444076538086,0.0023956298828125,XArbitraryCorrectedZVertical,-0.361797034740448,0.5254309773445129,0.5701265335083008,-0.517663836479187,-0.1314530521631241,-0.9737027883529663,-0.1860503852367401,-11.26544570922852,-59.00511932373047,-25.31246948242188,2
2017-12-04 17:02:37.078 -0800,19,C4D50155-580C-4885-BACB-A13DEF47355A,1512435751.936279,49.27718730712899,-122.9073973669521,343.0365,-1,-1,10,65,-9999,117268.5032540417,-0.1306915283203125,-0.979217529296875,-0.1789093017578125,117268.4771920417,-0.04005500805922777,-0.1081352592176864,6.231796950785417e-05,117268.4832040417,-1.173386735889383,-0.6175466483621962,1.340889901374891,-0.02767980098724365,-0.1108864694833755,0.005889035761356354,0.009186059236526489,-0.00180661678314209,-0.005046606063842773,XArbitraryCorrectedZVertical,-0.3611381351947784,0.526012659072876,0.570512056350708,-0.5171076655387878,-0.1319430321455002,-0.9736877083778381,-0.1857798546552658,-11.323561668396,-59.03636932373047,-25.10028076171875,2
2017-12-04 17:02:37.141 -0800,20,C4D50155-580C-4885-BACB-A13DEF47355A,1512435751.936279,49.27718730712899,-122.9073973669521,343.0365,-1,-1,10,65,-9999,117268.5333130417,-0.1440582275390625,-0.9700164794921875,-0.1922607421875,117268.5072820417,-0.01325029168758024,0.02332609535578603,0.0295898502396524,117268.5182680417,-1.170729925825458,-0.6211183419447192,1.340138928093643,-0.00193335022777319,0.03330016136169434,0.03861790895462036,-0.006616294384002686,-0.009836316108703613,0.008748769760131836,XArbitraryCorrectedZVertical,-0.3605456352233887,0.5263603329658508,0.5705172419548035,-0.517162024974823,-0.1330321431159973,-0.9735162854194641,-0.1859032958745956,-11.54838943481445,-58.90042114257812,-25.18295288085938,2
2017-12-04 17:02:37.145 -0800,21,C4D50155-580C-4885-BACB-A13DEF47355A,1512435751.936279,49.27718730712899,-122.9073973669521,343.0365,-1,-1,10,65,-9999,117268.5633730417,-0.1309356689453125,-0.9768829345703125,-0.187591552734375,117268.5373420417,0.004937766977115916,0.04556162624518462,0.03317020400915493,117268.5533640417,-1.165220282002116,-0.6251413117708746,1.339627627187435,0.02059938944876194,0.0237151775509119,0.02943959273397923,0.008154869079589844,-0.00255286693572998,-0.0003410577774047852,XArbitraryCorrectedZVertical,-0.3606627881526947,0.5263431668281555,0.5698489546775818,-0.5178342461585999,-0.134070411324501,-0.97339928150177,-0.1857704520225525,-11.50220680236816,-59.17133331298828,-25.33609008789062,2
2017-12-04 17:02:37.169 -0800,22,C4D50155-580C-4885-BACB-A13DEF47355A,1512435751.936279,49.27718730712899,-122.9073973669521,343.0365,-1,-1,10,65,-9999,117268.5934330417,-0.1394195556640625,-0.9749908447265625,-0.177459716796875,117268.5674020417,0.007309578243940485,-0.06472360292052275,-0.009592706246465415,117268.5883980417,-1.163814577854986,-0.6287169657555286,1.340265528688496,0.01646163687109947,-0.1035333201289177,-0.01242103800177574,-0.006745338439941406,-0.001048862934112549,-0.001034796237945557,XArbitraryCorrectedZVertical,-0.3602460622787476,0.5270952582359314,0.5700907707214355,-0.5170923471450806,-0.1343679428100586,-0.973545253276825,-0.1847867220640182,-11.39062786102295,-58.99579620361328,-25.3658447265625,2
2017-12-04 17:02:37.220 -0800,23,C4D50155-580C-4885-BACB-A13DEF47355A,1512435751.936279,49.27718730712899,-122.9073973669521,343.0365,-1,-1,10,65,-9999,117268.6234930417,-0.14007568359375,-0.9766082763671875,-0.1949005126953125,117268.5974610417,-0.01507961704035567,-0.0201287041510369,0.001799764264675549,117268.5883980417,-1.163814577854986,-0.6287169657555286,1.340265528688496,0.01646163687109947,-0.1035333201289177,-0.01242103800177574,-0.006745338439941406,-0.001048862934112549,-0.001034796237945557,XArbitraryCorrectedZVertical,-0.3602460622787476,0.5270952582359314,0.5700907707214355,-0.5170923471450806,-0.1343679428100586,-0.973545253276825,-0.1847867220640182,-11.39062786102295,-58.99579620361328,-25.3658447265625,2
2017-12-04 17:02:37.229 -0800,24,C4D50155-580C-4885-BACB-A13DEF47355A,1512435751.936279,49.27718730712899,-122.9073973669521,343.0365,-1,-1,10,65,-9999,117268.6535530417,-0.14581298828125,-0.9813995361328125,-0.191253662109375,117268.6275210417,-0.02923272033747278,0.0732955195211608,-0.01312565574856453,117268.6234930417,-1.16350085711026,-0.6290278637040713,1.339784927304131,-0.02362521551549435,0.06735287606716156,0.01064841262996197,-0.005374610424041748,-0.003172993659973145,-0.009776711463928223,XArbitraryCorrectedZVertical,-0.3600651919841766,0.5270589590072632,0.5700947642326355,-0.5172510743141174,-0.1347010582685471,-0.9734353423118591,-0.1851238161325455,-11.78642463684082,-58.87197113037109,-25.17532348632812,2
2017-12-04 17:02:37.262 -0800,25,C4D50155-580C-4885-BACB-A13DEF47355A,1512435751.936279,49.27718730712899,-122.9073973669521,343.0365,-1,-1,10,65,-9999,117268.6836430417,-0.1198272705078125,-0.97296142578125,-0.17425537109375,117268.6575810417,0.04032904733539693,0.05512823351296726,-0.02890009151732188,117268.6585580417,-1.16549814872863,-0.6254213197885304,1.340425409361786,0.04636615887284279,0.04815086722373962,-0.02745501324534416,-0.01214563846588135,-0.00781780481338501,-0.006150901317596436,XArbitraryCorrectedZVertical,-0.3608001172542572,0.5265661478042603,0.569922149181366,-0.5174310207366943,-0.1336673647165298,-0.9735817909240723,-0.1851027309894562,-11.72404479980469,-58.92618560791016,-25.27239990234375,2
2017-12-04 17:02:37.304 -0800,26,C4D50155-580C-4885-BACB-A13DEF47355A,1512435751.936279,49.27718730712899,-122.9073973669521,343.0365,-1,-1,10,65,-9999,117268.7137030417,-0.1277923583984375,-0.975799560546875,-0.1800079345703125,117268.6876410417,0.01507588861482956,0.03497635986044666,0.002490055619224088,117268.6936530417,-1.161828160593752,-0.6279359047861629,1.341935761841277,0.02636677399277687,0.02480065822601318,0.007215186487883329,0.01415863633155823,0.001833856105804443,0.006391286849975586,XArbitraryCorrectedZVertical,-0.3616001307964325,0.5267420411109924,0.5693337321281433,-0.5173414945602417,-0.133268728852272,-0.9739255309104919,-0.1835763305425644,-11.66536331176758,-58.95420074462891,-24.97354125976562,2
2017-12-04 17:02:37.319 -0800,27,C4D50155-580C-4885-BACB-A13DEF47355A,1512435751.936279,49.27718730712899,-122.9073973669521,343.0365,-1,-1,10,65,-9999,117268.7437630417,-0.1359405517578125,-0.9738311767578125,-0.1867218017578125,117268.7177010417,-0.01490624525339151,-0.03390257330892672,-0.01099246371541106,117268.7286870417,-1.161702066975207,-0.6287212260550168,1.341954694594698,0.002802013419568539,-0.06317384541034698,-0.01257531344890594,-0.0009366273880004883,-0.002785325050354004,-0.002212584018707275,XArbitraryCorrectedZVertical,-0.3614166080951691,0.5269249081611633,0.5694420337677002,-0.5171641707420349,-0.1334017515182495,-0.9739298224449158,-0.1834563463926315,-11.58036041259766,-58.98624420166016,-25.19134521484375,2
2017-12-04 17:02:37.381 -0800,28,C4D50155-580C-4885-BACB-A13DEF47355A,1512435751.936279,49.27718730712899,-122.9073973669521,343.0365,-1,-1,10,65,-9999,117268.7738220417,-0.1344146728515625,-0.9810943603515625,-0.18292236328125,117268.7477600417,-0.01795130364378811,-0.02009594726962892,-0.01526950042607832,117268.7637820417,-1.163578094401697,-0.6282281880175422,1.342134526283235,-0.01611259393393993,0.0164202693849802,-0.005289300810545683,-0.0008103251457214355,-0.007047414779663086,-0.0005958676338195801,XArbitraryCorrectedZVertical,-0.3611279726028442,0.5271592736244202,0.5698271989822388,-0.5167021751403809,-0.1332076042890549,-0.9739705920219421,-0.1833793818950653,-11.67258834838867,-59.05401229858398,-25.10366821289062,2
2017-12-04 17:02:37.384 -0800,29,C4D50155-580C-4885-BACB-A13DEF47355A,1512435751.936279,49.27718730712899,-122.9073973669521,343.0365,-1,-1,10,65,-9999,117268.8038820417,-0.1486053466796875,-0.9871673583984375,-0.1824951171875,117268.7778200417,-0.0162937521813228,0.08812559836737605,-0.01604128450998328,117268.7988470417,-1.164756769293331,-0.6244214481112045,1.34212308778636,0.002300902269780636,0.1192673519253731,0.009124169126152992,-0.01311445236206055,-0.0173802375793457,0.005305767059326172,XArbitraryCorrectedZVertical,-0.3618976771831512,0.5263864994049072,0.5694443583488464,-0.517373263835907,-0.1325154155492783,-0.9739680290222168,-0.1838946491479874,-11.60330867767334,-58.94741821289062,-24.97927856445312,2
2017-12-04 17:02:37.409 -0800,30,C4D50155-580C-4885-BACB-A13DEF47355A,1512435751.936279,49.27718730712899,-122.9073973669521,343.0365,-1,-1,10,65,-9999,117268.8339420417,-0.12933349609375,-0.9696502685546875,-0.1878814697265625,117268.8078800417,-0.00821958038842056,0.09443409435755575,0.009647567364921047,117268.7988470417,-1.164756769293331,-0.6244214481112045,1.34212308778636,0.002300902269780636,0.1192673519253731,0.009124169126152992,-0.01311445236206055,-0.0173802375793457,0.005305767059326172,XArbitraryCorrectedZVertical,-0.3618976771831512,0.5263864994049072,0.5694443583488464,-0.517373263835907,-0.1325154155492783,-0.9739680290222168,-0.1838946491479874,-11.60330867767334,-58.94741821289062,-24.97927856445312,2
2017-12-04 17:02:37.444 -0800,31,C4D50155-580C-4885-BACB-A13DEF47355A,1512435751.936279,49.27718730712899,-122.9073973669521,343.0365,-1,-1,10,65,-9999,117268.86400775,-0.1240997314453125,-0.9843292236328125,-0.1808624267578125,117268.8379400417,-0.006625145843790121,-0.08166690009171587,-0.01095464682793194,117268.8339420417,-1.163457865249535,-0.6241353407806428,1.342138677036597,0.006997524295002222,-0.04198066145181656,-0.00287522142753005,0.003119856119155884,0.004321277141571045,-0.00396198034286499,XArbitraryCorrectedZVertical,-0.362326443195343,0.5260796546936035,0.5690556764602661,-0.5178124904632568,-0.1324533969163895,-0.9739715456962585,-0.1839194893836975,-11.50079917907715,-58.92258071899414,-25.14749145507812,2
2017-12-04 17:02:37.469 -0800,32,C4D50155-580C-4885-BACB-A13DEF47355A,1512435751.936279,49.27718730712899,-122.9073973669521,343.0365,-1,-1,10,65,-9999,117268.89406775,-0.1439361572265625,-0.97625732421875,-0.1827239990234375,117268.86800575,-0.01757073792401579,0.01696806456933086,0.03055817561200521,117268.86898175,-1.16265326006321,-0.6273798077867945,1.342053562648649,-0.004149269312620163,-0.01122546941041946,0.02996290475130081,0.008999347686767578,-0.01037693023681641,0.002694845199584961,XArbitraryCorrectedZVertical,-0.3615839779376984,0.5267621874809265,0.5694394707679749,-0.5172157883644104,-0.1330990642309189,-0.9739522337913513,-0.1835572421550751,-11.53359031677246,-59.06436920166016,-25.41650390625,2
2017-12-04 17:02:37.500 -0800,33,C4D50155-580C-4885-BACB-A13DEF47355A,1512435751.936279,49.27718730712899,-122.9073973669521,343.0365,-1,-1,10,65,-9999,117268.92412775,-0.1277008056640625,-0.9720001220703125,-0.189239501953125,117268.89806575,0.01260340985879999,0.05616606738977113,0.0258928500144044,117268.90407775,-1.156885234383884,-0.6314785980292804,1.341493750148696,0.02713052183389664,0.04599365592002869,0.02855134941637516,-0.01128989458084106,0.005212485790252686,-0.002249240875244141,XArbitraryCorrectedZVertical,-0.3617329001426697,0.5267107486724854,0.5687218308448792,-0.517953097820282,-0.1341721266508102,-0.9738251566886902,-0.1834501922130585,-11.82289505004883,-58.94273376464844,-25.13705444335938,2
2017-12-04 17:02:37.529 -0800,34,C4D50155-580C-4885-BACB-A13DEF47355A,1512435751.936279,49.27718730712899,-122.9073973669521,343.0365,-1,-1,10,65,-9999,117268.95418675,-0.1375579833984375,-0.9833831787109375,-0.171142578125,117268.92812475,0.002826679181010104,-0.05510027032152142,-0.05112949713621328,117268.93914175,-1.157961967057258,-0.6315959683814126,1.342604255781858,0.01421365886926651,-0.0578368678689003,-0.04957460984587669,0.009577333927154541,-0.002516031265258789,-0.003382086753845215,XArbitraryCorrectedZVertical,-0.3618205487728119,0.5270722508430481,0.5689553022384644,-0.5172672867774963,-0.1335550248622894,-0.9740769863128662,-0.1825614720582962,-11.82048034667969,-59.0311393737793,-24.91253662109375,2
2017-12-04 17:02:37.559 -0800,35,C4D50155-580C-4885-BACB-A13DEF47355A,1512435751.936279,49.27718730712899,-122.9073973669521,343.0365,-1,-1,10,65,-9999,117268.98424675,-0.135284423828125,-0.970855712890625,-0.1914215087890625,117268.95818475,-0.0187811446394568,0.09870846790713292,0.005208610459976974,117268.97423675,-1.159093465945324,-0.6288590680439075,1.342648507384271,-0.01388515811413527,0.08960960805416107,0.009818263351917267,-0.007076948881149292,0.003399133682250977,-0.005081892013549805,XArbitraryCorrectedZVertical,-0.3623170256614685,0.5265746116638184,0.5687500238418579,-0.5176520943641663,-0.1330292671918869,-0.9740869998931885,-0.1828911006450653,-11.66689300537109,-58.97734069824219,-25.03305053710938,2
2017-12-04 17:02:37.600 -0800,36,C4D50155-580C-4885-BACB-A13DEF47355A,1512435751.936279,49.27718730712899,-122.9073973669521,343.0365,-1,-1,10,65,-9999,117269.01430675,-0.1298828125,-0.9811248779296875,-0.188690185546875,117268.98824475,-0.02211888443365311,-0.01689695816822574,-0.01959287613971296,117269.00927175,-1.162034961736589,-0.6266573746100128,1.342595060291876,-0.01504485681653023,-0.05144157260656357,-0.02457531169056892,0.005337417125701904,-0.002838611602783203,-0.003572463989257812,XArbitraryCorrectedZVertical,-0.3621494472026825,0.5265310406684875,0.5691156983375549,-0.5174117088317871,-0.1326567828655243,-0.9740749001502991,-0.1832256764173508,-11.68707847595215,-58.91156768798828,-25.07205200195312,2
2017-12-04 17:02:37.619 -0800,37,C4D50155-580C-4885-BACB-A13DEF47355A,1512435751.936279,49.27718730712899,-122.9073973669521,343.0365,-1,-1,10,65,-9999,117269.04436675,-0.13641357421875,-0.97845458984375,-0.1864471435546875,117269.01830475,-0.01887621949037263,-0.0009922938221635241,-0.01736753873284274,117269.00927175,-1.162034961736589,-0.6266573746100128,1.342595060291876,-0.01504485681653023,-0.05144157260656357,-0.02457531169056892,0.005337417125701904,-0.002838611602783203,-0.003572463989257812,XArbitraryCorrectedZVertical,-0.3621494472026825,0.5265310406684875,0.5691156983375549,-0.5174117088317871,-0.1326567828655243,-0.9740749001502991,-0.1832256764173508,-11.68707847595215,-58.91156768798828,-25.07205200195312,2
2017-12-04 17:02:37.649 -0800,38,C4D50155-580C-4885-BACB-A13DEF47355A,1512435751.936279,49.27718730712899,-122.9073973669521,343.0365,-1,-1,10,65,-9999,117269.07442675,-0.1304473876953125,-0.9803924560546875,-0.179901123046875,117269.04839475,0.02801858519650565,-3.994741635118857e-05,-0.0143714825065036,117269.04436675,-1.162941811234929,-0.6262347927091312,1.343049361397968,0.03079373762011528,-0.008049544878304005,-0.01086018234491348,-0.004093706607818604,-0.00427699089050293,-0.003524184226989746,XArbitraryCorrectedZVertical,-0.3621962368488312,0.5266425609588623,0.5692457556724548,-0.5171222686767578,-0.1323198527097702,-0.9741775393486023,-0.1829230040311813,-11.4985294342041,-58.71480178833008,-24.96566772460938,2
2017-12-04 17:02:37.680 -0800,39,C4D50155-580C-4885-BACB-A13DEF47355A,1512435751.936279,49.27718730712899,-122.9073973669521,343.0365,-1,-1,10,65,-9999,117269.10448575,-0.1321563720703125,-0.9785614013671875,-0.1844329833984375,117269.07845475,0.01177543307589436,0.03921797652861587,0.008820389530342436,117269.07943175,-1.158981639553348,-0.6297048042659364,1.343923376855186,0.03046004474163055,0.03752885758876801,0.01902208290994167,0.002004712820053101,-0.006017923355102539,0.001873135566711426,XArbitraryCorrectedZVertical,-0.3625701367855072,0.5269305109977722,0.5687971711158752,-0.5170604586601257,-0.132452130317688,-0.974374532699585,-0.1817742586135864,-11.52323055267334,-59.07781219482422,-25.00332641601562,2
2017-12-04 17:02:37.710 -0800,40,C4D50155-580C-4885-BACB-A13DEF47355A,1512435751.936279,49.27718730712899,-122.9073973669521,343.0365,-1,-1,10,65,-9999,117269.13454575,-0.140655517578125,-0.973968505859375,-0.176361083984375,117269.10851475,-0.05161632298347976,0.01395523042812422,-0.03069879051756139,117269.11452675,-1.161211787377233,-0.6273801178455315,1.343919652331597,-0.03924195468425751,0.008029886521399021,-0.02594268321990967,-0.006716221570968628,0.0003899335861206055,0.001390814781188965,XArbitraryCorrectedZVertical,-0.3626426756381989,0.5267329216003418,0.568952202796936,-0.5170406103134155,-0.1320319175720215,-0.9743736982345581,-0.1820854395627975,-11.51431846618652,-59.26412963867188,-24.94931030273438,2
2017-12-04 17:02:37.741 -0800,41,C4D50155-580C-4885-BACB-A13DEF47355A,1512435751.936279,49.27718730712899,-122.9073973669521,343.0365,-1,-1,10,65,-9999,117269.16460575,-0.1352386474609375,-0.9790496826171875,-0.1999359130859375,117269.13857475,-0.04498931292692659,0.0881983026651352,-0.02188905363157927,117269.14956075,-1.167033971306217,-0.61950793505607,1.343233306714059,-0.02816693112254143,0.07272172719240189,-0.02877327799797058,-0.005445331335067749,-0.004357576370239258,0.001932621002197266,XArbitraryCorrectedZVertical,-0.3631011545658112,0.5256664156913757,0.5690725445747375,-0.5176717638969421,-0.1309835314750671,-0.9742190837860107,-0.1836647391319275,-11.47706031799316,-58.94478225708008,-25.25326538085938,2
2017-12-04 17:02:37.770 -0800,42,C4D50155-580C-4885-BACB-A13DEF47355A,1512435751.936279,49.27718730712899,-122.9073973669521,343.0365,-1,-1,10,65,-9999,117269.19469575,-0.129119873046875,-0.969482421875,-0.1874542236328125,117269.16863375,-0.03886564031639839,-0.02637887691334386,-0.03906857319146242,117269.18465575,-1.173217288396768,-0.6138932761278495,1.34308922237715,-0.01420196518301964,-0.01222040224820375,-0.002131257206201553,-0.0002177059650421143,-0.004496932029724121,-0.002667248249053955,XArbitraryCorrectedZVertical,-0.363022655248642,0.5253174304962158,0.5696626305580139,-0.5174320936203003,-0.1300313174724579,-0.9741865396499634,-0.1845123022794724,-11.4806079864502,-59.17668151855469,-25.31781005859375,2
2017-12-04 17:02:37.800 -0800,43,C4D50155-580C-4885-BACB-A13DEF47355A,1512435751.936279,49.27718730712899,-122.9073973669521,343.0365,-1,-1,10,65,-9999,117269.22475575,-0.1323089599609375,-0.9827423095703125,-0.18988037109375,117269.19869375,0.02346324815192511,0.03070358420752354,0.009015865554354253,117269.21972075,-1.169227326176038,-0.6177979898569982,1.343903234511532,0.05514093488454819,-0.04629335179924965,-0.01156551577150822,-0.001269072294235229,-0.002421379089355469,-0.0121530294418335,XArbitraryCorrectedZVertical,-0.3632548153400421,0.5257062315940857,0.5692861676216125,-0.5172889828681946,-0.1302922070026398,-0.974370002746582,-0.1833577901124954,-11.29925346374512,-59.13954925537109,-25.15380859375,2
2017-12-04 17:02:37.850 -0800,44,C4D50155-580C-4885-BACB-A13DEF47355A,1512435751.936279,49.27718730712899,-122.9073973669521,343.0365,-1,-1,10,65,-9999,117269.25481575,-0.1327972412109375,-0.9828338623046875,-0.173675537109375,117269.22875375,0.02583692363151274,-0.05200674239928538,-0.02623586516280661,117269.21972075,-1.169227326176038,-0.6177979898569982,1.343903234511532,0.05514093488454819,-0.04629335179924965,-0.01156551577150822,-0.001269072294235229,-0.002421379089355469,-0.0121530294418335,XArbitraryCorrectedZVertical,-0.3632548153400421,0.5257062315940857,0.5692861676216125,-0.5172889828681946,-0.1302922070026398,-0.974370002746582,-0.1833577901124954,-11.29925346374512,-59.13954925537109,-25.15380859375,2
2017-12-04 17:02:37.860 -0800,45,C4D50155-580C-4885-BACB-A13DEF47355A,1512435751.936279,49.27718730712899,-122.9073973669521,343.0365,-1,-1,10,65,-9999,117269.28487575,-0.1274871826171875,-0.9736480712890625,-0.1888427734375,117269.25881375,-0.02161900909704524,2.556634646476069e-05,0.01448972685890312,117269.25481575,-1.168865437853244,-0.6202325568875338,1.345007898565299,0.002714604139328003,-0.04619015380740166,-0.004026207141578197,-0.002684116363525391,-0.008215963840484619,0.008489370346069336,XArbitraryCorrectedZVertical,-0.3630580604076385,0.5264089703559875,0.5695634484291077,-0.516406774520874,-0.1301131099462509,-0.9746178984642029,-0.1821648776531219,-11.24710559844971,-59.24667739868164,-25.21347045898438,2
2017-12-04 17:02:37.890 -0800,46,C4D50155-580C-4885-BACB-A13DEF47355A,1512435751.936279,49.27718730712899,-122.9073973669521,343.0365,-1,-1,10,65,-9999,117269.31493575,-0.143707275390625,-0.980377197265625,-0.1889190673828125,117269.28887375,-0.05544994337264882,0.0414877887256904,0.009710417966646918,117269.28984975,-1.167809290699641,-0.6208381437775575,1.344066584077933,-0.0345642976462841,0.02705247141420841,0.01353943813592196,0.003270238637924194,0.0007586479187011719,-0.006010055541992188,XArbitraryCorrectedZVertical,-0.3628217577934265,0.5262547135353088,0.5694605112075806,-0.5168435573577881,-0.1307573914527893,-0.9744067192077637,-0.1828327029943466,-11.14765357971191,-59.16686630249023,-25.16140747070312,2
2017-12-04 17:02:37.934 -0800,47,C4D50155-580C-4885-BACB-A13DEF47355A,1512435751.936279,49.27718730712899,-122.9073973669521,343.0365,-1,-1,10,65,-9999,117269.34499475,-0.1280059814453125,-0.9688262939453125,-0.1890716552734375,117269.31893275,-0.02625290939378312,0.06266551203010952,-0.004588093925988511,117269.32494475,-1.170062717064501,-0.6169207989816067,1.342862456941337,-0.01069446559995413,0.05144268646836281,-0.0008483957499265671,-0.01416248083114624,-0.0006723999977111816,-0.004907369613647461,XArbitraryCorrectedZVertical,-0.3629074394702911,0.5254972577095032,0.5694093704223633,-0.5176102519035339,-0.1307197362184525,-0.9741353392601013,-0.1843016445636749,-11.17850685119629,-59.1175537109375,-25.18795776367188,2
2017-12-04 17:02:37.950 -0800,48,C4D50155-580C-4885-BACB-A13DEF47355A,1512435751.936279,49.27718730712899,-122.9073973669521,343.0365,-1,-1,10,65,-9999,117269.37505475,-0.1266021728515625,-0.9767913818359375,-0.1788482666015625,117269.34899275,0.01320741479402997,-0.02757170676559035,-0.02853736897685308,117269.35997975,-1.17083425203127,-0.6166016347316127,1.343818282681066,0.02753607183694839,-0.02396455779671669,-0.01202299632132053,0.004054099321365356,0.004151284694671631,0.001546025276184082,XArbitraryCorrectedZVertical,-0.3631425201892853,0.5256765484809875,0.5694892406463623,-0.5171751976013184,-0.1301222294569016,-0.9743508696556091,-0.1835833489894867,-11.29571437835693,-59.41547012329102,-25.2449951171875,2
2017-12-04 17:02:37.982 -0800,49,C4D50155-580C-4885-BACB-A13DEF47355A,1512435751.936279,49.27718730712899,-122.9073973669521,343.0365,-1,-1,10,65,-9999,117269.40511475,-0.1370086669921875,-0.9850616455078125,-0.1868896484375,117269.37905275,0.03202397947598482,0.04765566981031392,0.01240553698980711,117269.39510475,-1.165746266893852,-0.620633505112747,1.344698973717591,0.04354511201381683,0.03856000676751137,0.005438961554318666,-0.001702010631561279,-0.008285164833068848,0.001222729682922363,XArbitraryCorrectedZVertical,-0.3636526465415955,0.5259057283401489,0.5688492059707642,-0.5172883868217468,-0.1303628087043762,-0.9745486974716187,-0.1823598295450211,-11.16363906860352,-59.12716674804688,-25.16668701171875,2
2017-12-04 17:02:38.020 -0800,50,C4D50155-580C-4885-BACB-A13DEF47355A,1512435751.936279,49.27718730712899,-122.9073973669521,343.0365,-1,-1,10,65,-9999,117269.43517475,-0.1211700439453125,-0.9696044921875,-0.1824798583984375,117269.40911275,-0.01261086670985222,-0.003138269028549374,-0.01087581725966559,117269.43013975,-1.165693309712386,-0.6208431144542353,1.34467373446625,-0.02725648507475853,-0.01751131564378738,0.009313615038990974,0.001707017421722412,0.001993656158447266,-0.001272380352020264,XArbitraryCorrectedZVertical,-0.3635976910591125,0.5259475111961365,0.5688754320144653,-0.5172554850578308,-0.1304148882627487,-0.974543035030365,-0.1823518723249435,-11.31898784637451,-59.19293975830078,-25.15780639648438,2
2017-12-04 17:02:38.041 -0800,51,C4D50155-580C-4885-BACB-A13DEF47355A,1512435751.936279,49.27718730712899,-122.9073973669521,343.0365,-1,-1,10,65,-9999,117269.46523475,-0.12841796875,-0.981719970703125,-0.1871185302734375,117269.43917275,-0.04500955295121119,-0.0285512174145215,0.002289785905250129,117269.43013975,-1.165693309712386,-0.6208431144542353,1.34467373446625,-0.02725648507475853,-0.01751131564378738,0.009313615038990974,0.001707017421722412,0.001993656158447266,-0.001272380352020264,XArbitraryCorrectedZVertical,-0.3635976910591125,0.5259475111961365,0.5688754320144653,-0.5172554850578308,-0.1304148882627487,-0.974543035030365,-0.1823518723249435,-11.31898784637451,-59.19293975830078,-25.15780639648438,2
2017-12-04 17:02:38.100 -0800,52,C4D50155-580C-4885-BACB-A13DEF47355A,1512435751.936279,49.27718730712899,-122.9073973669521,343.0365,-1,-1,10,65,-9999,117269.49529475,-0.1365814208984375,-0.986541748046875,-0.189178466796875,117269.46923275,-0.02663134458468337,0.06475715875025775,0.01561677663222465,117269.46523475,-1.167456886377533,-0.6201365381096229,1.34360175042835,-0.02404361590743065,0.004757491871714592,0.01474453695118427,0.00247502326965332,-0.007417798042297363,-0.003824591636657715,XArbitraryCorrectedZVertical,-0.3629454672336578,0.5259501934051514,0.5692713856697083,-0.5172751545906067,-0.1308929920196533,-0.9743021130561829,-0.1832939684391022,-11.50635528564453,-59.08535385131836,-25.21206665039062,2
2017-12-04 17:02:38.103 -0800,53,C4D50155-580C-4885-BACB-A13DEF47355A,1512435751.936279,49.27718730712899,-122.9073973669521,343.0365,-1,-1,10,65,-9999,117269.52535375,-0.118316650390625,-0.9637451171875,-0.179046630859375,117269.49929175,-0.02108025160852221,0.05945933239376312,0.002944390901191606,117269.50026875,-1.165737808778097,-0.6190490226921754,1.342964699389838,-0.005465118214488029,0.07261715084314346,0.01099675334990025,-0.005527585744857788,-0.01238334178924561,-0.005236625671386719,XArbitraryCorrectedZVertical,-0.3634751737117767,0.5252760052680969,0.568669319152832,-0.5182496309280396,-0.1310538351535797,-0.9741584658622742,-0.1839418262243271,-11.37576389312744,-59.12667083740234,-25.2845458984375,2
2017-12-04 17:02:38.131 -0800,54,C4D50155-580C-4885-BACB-A13DEF47355A,1512435751.936279,49.27718730712899,-122.9073973669521,343.0365,-1,-1,10,65,-9999,117269.55541375,-0.12451171875,-0.97930908203125,-0.18212890625,117269.52935175,-0.05011137065147599,-0.02746065294813405,-0.009500560872748674,117269.53539475,-1.168805402342942,-0.616629560391897,1.342479850176438,-0.03779461979866028,-0.03443269059062004,-0.002619626466184855,0.01242771744728088,0.01070046424865723,0.004834353923797607,XArbitraryCorrectedZVertical,-0.3631816506385803,0.5251448750495911,0.5690555572509766,-0.5181643962860107,-0.1308816820383072,-0.9740487933158875,-0.1846438944339752,-11.33707141876221,-59.02247619628906,-25.23141479492188,2
2017-12-04 17:02:38.186 -0800,55,C4D50155-580C-4885-BACB-A13DEF47355A,1512435751.936279,49.27718730712899,-122.9073973669521,343.0365,-1,-1,10,65,-9999,117269.58547375,-0.1497650146484375,-0.987060546875,-0.19708251953125,117269.55944275,-0.05652026781475167,0.04467159780888014,0.0107618339650102,117269.57042875,-1.171425984605223,-0.6137330040672696,1.340880588293922,-0.03443367034196854,0.04934679716825485,0.01253304816782475,0.001025497913360596,-0.008659958839416504,-0.004987716674804688,XArbitraryCorrectedZVertical,-0.3627375662326813,0.5246648788452148,0.5693123936653137,-0.5186796188354492,-0.1312439739704132,-0.973685622215271,-0.1862964481115341,-11.40309238433838,-58.99056243896484,-25.44879150390625,2
2017-12-04 17:02:38.191 -0800,56,C4D50155-580C-4885-BACB-A13DEF47355A,1512435751.936279,49.27718730712899,-122.9073973669521,343.0365,-1,-1,10,65,-9999,117269.61553375,-0.1381988525390625,-0.970367431640625,-0.1904296875,117269.58950175,-0.02403023514800298,0.04463804197914514,-0.01416215804482337,117269.60552375,-1.173601219598741,-0.6102300812143531,1.340517045377827,-0.01060873921960592,0.009023598395287991,-0.0169021338224411,-0.01723235845565796,0.001709401607513428,-0.01341003179550171,XArbitraryCorrectedZVertical,-0.3630323112010956,0.5241041779518127,0.5692651271820068,-0.5190918445587158,-0.1307931393384933,-0.9736027121543884,-0.1870447099208832,-11.03521347045898,-58.8557014465332,-25.52896118164062,2
2017-12-04 17:02:38.222 -0800,57,C4D50155-580C-4885-BACB-A13DEF47355A,1512435751.936279,49.27718730712899,-122.9073973669521,343.0365,-1,-1,10,65,-9999,117269.64559375,-0.1298675537109375,-0.9731903076171875,-0.1868896484375,117269.61956175,-0.03951252214517863,0.00644831194740886,0.003539341088715308,117269.64055775,-1.174457286999018,-0.6087176335511065,1.339686075112621,-0.02833142131567001,0.08643063902854919,0.03825981914997101,0.005041688680648804,-0.003516018390655518,0.006783843040466309,XArbitraryCorrectedZVertical,-0.3629369735717773,0.5237594246864319,0.5692679882049561,-0.5195030570030212,-0.1309724450111389,-0.9734126925468445,-0.1879056394100189,-11.1460132598877,-59.02327728271484,-25.37149047851562,2
2017-12-04 17:02:38.272 -0800,58,C4D50155-580C-4885-BACB-A13DEF47355A,1512435751.936279,49.27718730712899,-122.9073973669521,343.0365,-1,-1,10,65,-9999,117269.67565275,-0.137451171875,-0.9815826416015625,-0.1961517333984375,117269.64962175,-0.02003789035786519,0.1209679672463422,0.02119183805819653,117269.64055775,-1.174457286999018,-0.6087176335511065,1.339686075112621,-0.02833142131567001,0.08643063902854919,0.03825981914997101,0.005041688680648804,-0.003516018390655518,0.006783843040466309,XArbitraryCorrectedZVertical,-0.3629369735717773,0.5237594246864319,0.5692679882049561,-0.5195030570030212,-0.1309724450111389,-0.9734126925468445,-0.1879056394100189,-11.1460132598877,-59.02327728271484,-25.37149047851562,2
2017-12-04 17:02:38.281 -0800,59,C4D50155-580C-4885-BACB-A13DEF47355A,1512435751.936279,49.27718730712899,-122.9073973669521,343.0365,-1,-1,10,65,-9999,117269.70574375,-0.110015869140625,-0.9665374755859375,-0.1819305419921875,117269.67968175,-0.002823217071593,-0.06465808915770679,-0.03743126175328171,117269.67565275,-1.173338832191082,-0.6076586461467648,1.339378228923552,0.009519631043076515,-0.03556879609823227,-0.02195470780134201,-0.00650787353515625,-0.00824052095413208,-0.007863223552703857,XArbitraryCorrectedZVertical,-0.3634190857410431,0.5232421159744263,0.5688059329986572,-0.5201923847198486,-0.1309432685375214,-0.9733421206474304,-0.1882885098457336,-11.13787841796875,-59.15605545043945,-25.49398803710938,2
2017-12-04 17:02:38.340 -0800,60,C4D50155-580C-4885-BACB-A13DEF47355A,1512435751.936279,49.27718730712899,-122.9073973669521,343.0365,-1,-1,10,65,-9999,117269.73580375,-0.12103271484375,-0.9948272705078125,-0.18060302734375,117269.70974175,-0.04794462278858751,0.02556554751643366,0.003429618851804043,117269.71071775,-1.175014826590349,-0.6077616022329106,1.339486101967055,-0.02720516920089722,0.0005269171670079231,0.01148546300828457,0.02088683843612671,0.006829380989074707,0.006258368492126465,XArbitraryCorrectedZVertical,-0.3629903197288513,0.5235872268676758,0.569253146648407,-0.5196550488471985,-0.1309027224779129,-0.9733668565750122,-0.1881888806819916,-11.32763957977295,-58.93000793457031,-25.65673828125,2
2017-12-04 17:02:38.344 -0800,61,C4D50155-580C-4885-BACB-A13DEF47355A,1512435751.936279,49.27718730712899,-122.9073973669521,343.0365,-1,-1,10,65,-9999,117269.76586275,-0.14874267578125,-0.9678497314453125,-0.1995391845703125,117269.73980075,-0.06844297369892742,0.2069499872523135,0.0651723455642011,117269.74581275,-1.175900805273039,-0.6030259510653122,1.337280009577615,-0.05294135212898254,0.2010301649570465,0.07317819446325302,-0.008603394031524658,-0.01885569095611572,0.005669653415679932,XArbitraryCorrectedZVertical,-0.3633057773113251,0.5222270488739014,0.5687711238861084,-0.5213286280632019,-0.1312281489372253,-0.972858726978302,-0.1905756443738937,-11.24573135375977,-59.13039779663086,-25.83120727539062,2
2017-12-04 17:02:38.371 -0800,62,C4D50155-580C-4885-BACB-A13DEF47355A,1512435751.936279,49.27718730712899,-122.9073973669521,343.0365,-1,-1,10,65,-9999,117269.79592275,-0.119537353515625,-0.96026611328125,-0.217376708984375,117269.76986075,0.02855201636284852,0.1399110320800758,0.05191406439335062,117269.78084775,-1.166670879620606,-0.6062824052366997,1.336549763253442,0.05697309225797653,0.09155678004026413,0.04197710752487183,-0.007915586233139038,0.003344416618347168,-0.01057988405227661,XArbitraryCorrectedZVertical,-0.3645236194133759,0.5213040113449097,0.56700199842453,-0.5233250260353088,-0.1322516351938248,-0.9726895093917847,-0.1907293200492859,-11.14725685119629,-58.92274475097656,-25.69717407226562,2
2017-12-04 17:02:38.421 -0800,63,C4D50155-580C-4885-BACB-A13DEF47355A,1512435751.936279,49.27718730712899,-122.9073973669521,343.0365,-1,-1,10,65,-9999,117269.82598275,-0.150054931640625,-0.996307373046875,-0.1884307861328125,117269.79992075,0.0608199413946846,-0.0732284078616908,-0.07562578547498013,117269.81594275,-1.166332176090074,-0.6083941136050447,1.339603998088484,0.07294934988021851,-0.1544532477855682,-0.07956250756978989,-0.008327454328536987,-0.01085901260375977,-0.01546603441238403,XArbitraryCorrectedZVertical,-0.3651232123374939,0.5221877694129944,0.5671002268791199,-0.5219173431396484,-0.1309547871351242,-0.9733938574790955,-0.1880099475383759,-11.34107398986816,-58.95557022094727,-25.6837158203125,2
2017-12-04 17:02:38.431 -0800,64,C4D50155-580C-4885-BACB-A13DEF47355A,1512435751.936279,49.27718730712899,-122.9073973669521,343.0365,-1,-1,10,65,-9999,117269.8560135,-0.160888671875,-0.9694976806640625,-0.18841552734375,117269.82998075,0.02792191244893577,-0.1040686122331354,0.01728125231352418,117269.8509775,-1.158491034880271,-0.6190089890976389,1.340441195305951,0.05424078553915024,0.05112321674823761,0.1173384040594101,-0.02939644455909729,-0.01194930076599121,0.009918212890625,XArbitraryCorrectedZVertical,-0.36446812748909,0.5236327052116394,0.5669391751289368,-0.5211012363433838,-0.1324687749147415,-0.9735853672027588,-0.1859435439109802,-11.19343566894531,-59.12016296386719,-25.39532470703125,2
2017-12-04 17:02:38.488 -0800,65,C4D50155-580C-4885-BACB-A13DEF47355A,1512435751.936279,49.27718730712899,-122.9073973669521,343.0365,-1,-1,10,65,-9999,117269.8860735,-0.176971435546875,-0.9879302978515625,-0.195098876953125,117269.8600115,0.09524635849002991,0.0950916288306963,0.1221671886852049,117269.8509775,-1.158491034880271,-0.6190089890976389,1.340441195305951,0.05424078553915024,0.05112321674823761,0.1173384040594101,-0.02939644455909729,-0.01194930076599121,0.009918212890625,XArbitraryCorrectedZVertical,-0.36446812748909,0.5236327052116394,0.5669391751289368,-0.5211012363433838,-0.1324687749147415,-0.9735853672027588,-0.1859435439109802,-11.19343566894531,-59.12016296386719,-25.39532470703125,2
2017-12-04 17:02:38.491 -0800,66,C4D50155-580C-4885-BACB-A13DEF47355A,1512435751.936279,49.27718730712899,-122.9073973669521,343.0365,-1,-1,10,65,-9999,117269.9161325,-0.136627197265625,-0.978240966796875,-0.16986083984375,117269.8900705,0.03325675674458251,-0.006508233071935642,0.04420314777313519,117269.8860735,-1.137604607378098,-0.637493613848776,1.340957202631771,0.07525444775819778,-0.007212074007838964,0.06334542483091354,-0.04138761758804321,-0.01422721147537231,-0.0120396614074707,XArbitraryCorrectedZVertical,-0.3649003207683563,0.5247076749801636,0.5648327469825745,-0.5220040678977966,-0.1355837732553482,-0.9737030863761902,-0.1830592304468155,-11.4248628616333,-59.0406494140625,-25.31887817382812,2
2017-12-04 17:02:38.521 -0800,67,C4D50155-580C-4885-BACB-A13DEF47355A,1512435751.936279,49.27718730712899,-122.9073973669521,343.0365,-1,-1,10,65,-9999,117269.9461925,-0.1087493896484375,-0.9724578857421875,-0.198089599609375,117269.9201305,0.003634415939631137,0.07842316988399936,0.05449573275407343,117269.9211075,-1.127234321792129,-0.6466995569283058,1.340889978009527,0.02552994713187218,0.07035820186138153,0.06261389702558517,0.0006760358810424805,-0.00455319881439209,0.01199543476104736,XArbitraryCorrectedZVertical,-0.3650002181529999,0.5252110958099365,0.5638079047203064,-0.5225358605384827,-0.1373032480478287,-0.9736877679824829,-0.1818562895059586,-11.26229763031006,-59.13811492919922,-25.07003784179688,2
2017-12-04 17:02:38.564 -0800,68,C4D50155-580C-4885-BACB-A13DEF47355A,1512435758.441263,49.277167311615,-122.907428644096,343.2689,-1,-1,10,65,-9999,117269.9762525,-0.1075592041015625,-0.9639892578125,-0.1730194091796875,117269.9501905,-0.02730618960490945,-0.01271686052123737,0.02924310666572408,117269.9562025,-1.122936249894346,-0.6508074802802915,1.339899035742322,-0.01284144446253777,-0.01440194621682167,0.03723909333348274,0.03293624520301819,-0.01033371686935425,0.008199989795684814,XArbitraryCorrectedZVertical,-0.3646077811717987,0.5253873467445374,0.5634845495223999,-0.5229813456535339,-0.1386338621377945,-0.9734614491462708,-0.1820586025714874,-11.53337287902832,-59.3115234375,-25.16427612304688,2
2017-12-04 17:02:38.582 -0800,69,C4D50155-580C-4885-BACB-A13DEF47355A,1512435758.441263,49.277167311615,-122.907428644096,343.2689,-1,-1,10,65,-9999,117270.0063125,-0.1387939453125,-0.9701995849609375,-0.188201904296875,117269.9802505,0.02143658256237481,0.2024431197395724,0.106172775810407,117269.9912675,-1.110525439332191,-0.6583852072668689,1.338421075976712,0.04768048971891403,0.2017958611249924,0.1122619360685349,0.02829462289810181,0.004295825958251953,-0.005222439765930176,XArbitraryCorrectedZVertical,-0.3651915490627289,0.5249428749084473,0.5616879463195801,-0.5249491333961487,-0.1408892273902893,-0.9731221199035645,-0.1821402162313461,-11.58442687988281,-59.21088409423828,-25.14520263671875,2
2017-12-04 17:02:38.613 -0800,70,C4D50155-580C-4885-BACB-A13DEF47355A,1512435758.441263,49.277167311615,-122.907428644096,343.2689,-1,-1,10,65,-9999,117270.0363725,-0.1438751220703125,-0.984649658203125,-0.19000244140625,117270.0103105,0.06377205546303744,0.07407848888164409,0.03326288201508969,117270.0263625,-1.09811535750074,-0.6671424243139084,1.33937302093866,0.08073931932449341,-0.04103576019406319,-0.01001528277993202,-0.006608426570892334,0.0007762908935546875,-0.02287733554840088,XArbitraryCorrectedZVertical,-0.3663444221019745,0.525077223777771,0.559986412525177,-0.5258285403251648,-0.1419053822755814,-0.9733409285545349,-0.1801713407039642,-11.72342300415039,-58.94129180908203,-24.80911254882812,2
2017-12-04 17:02:38.642 -0800,71,C4D50155-580C-4885-BACB-A13DEF47355A,1512435758.441263,49.277167311615,-122.907428644096,343.2689,-1,-1,10,65,-9999,117270.0664325,-0.1429443359375,-0.9850311279296875,-0.1547393798828125,117270.0404005,0.1111443649333669,-0.1806142535486289,-0.003699130754120062,117270.0613965,-1.085781105118601,-0.6842122032644178,1.34260723676943,0.1399963200092316,-0.09327085316181183,0.05689114332199097,0.004541844129562378,-0.004773736000061035,0.004399418830871582,XArbitraryCorrectedZVertical,-0.3660067021846771,0.5276341438293457,0.5597417950630188,-0.5237607359886169,-0.1429695934057236,-0.9740776419639587,-0.1752826124429703,-11.60875225067139,-59.20790481567383,-24.83724975585938,2
2017-12-04 17:02:38.671 -0800,72,C4D50155-580C-4885-BACB-A13DEF47355A,1512435758.441263,49.277167311615,-122.907428644096,343.2689,-1,-1,10,65,-9999,117270.0964915,-0.154449462890625,-1.011886596679688,-0.1505584716796875,117270.0704605,0.08267650446096492,0.05695782518185169,0.09950901413081073,117270.0613965,-1.085781105118601,-0.6842122032644178,1.34260723676943,0.1399963200092316,-0.09327085316181183,0.05689114332199097,0.004541844129562378,-0.004773736000061035,0.004399418830871582,XArbitraryCorrectedZVertical,-0.3660067021846771,0.5276341438293457,0.5597417950630188,-0.5237607359886169,-0.1429695934057236,-0.9740776419639587,-0.1752826124429703,-11.60875225067139,-59.20790481567383,-24.83724975585938,2
2017-12-04 17:02:38.709 -0800,73,C4D50155-580C-4885-BACB-A13DEF47355A,1512435758.441263,49.277167311615,-122.907428644096,343.2689,-1,-1,10,65,-9999,117270.1265515,-0.1627197265625,-0.9884033203125,-0.1990509033203125,117270.1005205,-0.01931590738634471,0.3043314019882599,0.1450155129414307,117270.0964915,-1.065901286658671,-0.6997220035429409,1.341741938562077,0.007673983462154865,0.2548737227916718,0.1541914790868759,-0.008237540721893311,-0.03800511360168457,0.02312839031219482,XArbitraryCorrectedZVertical,-0.3666005730628967,0.5279778242111206,0.5573994517326355,-0.5254935026168823,-0.1462119221687317,-0.9738815426826477,-0.1736868768930435,-11.89767837524414,-59.25199508666992,-24.79183959960938,2
2017-12-04 17:02:38.732 -0800,74,C4D50155-580C-4885-BACB-A13DEF47355A,1512435758.441263,49.277167311615,-122.907428644096,343.2689,-1,-1,10,65,-9999,117270.1566115,-0.1470794677734375,-0.9847869873046875,-0.1824493408203125,117270.1305805,0.0157360862490602,0.1484230275561871,0.05488828269875112,117270.1315565,-1.05301235626668,-0.7029372835118305,1.339410195122852,0.01757505163550377,0.1913240551948547,0.06594903767108917,-0.01448163390159607,-0.01505386829376221,-0.02410197257995605,XArbitraryCorrectedZVertical,-0.3682376146316528,0.5262381434440613,0.5546647906303406,-0.5289762616157532,-0.1482380926609039,-0.9733494520187378,-0.1749489456415176,-12.1006031036377,-59.31394577026367,-24.85055541992188,2
2017-12-04 17:02:38.762 -0800,75,C4D50155-580C-4885-BACB-A13DEF47355A,1512435758.441263,49.277167311615,-122.907428644096,343.2689,-1,-1,10,65,-9999,117270.1866715,-0.1503448486328125,-0.988311767578125,-0.1699676513671875,117270.1606395,0.005786250100415161,-0.1008160935938216,0.004117779677480518,117270.1666515,-1.047010679508073,-0.7098096067571503,1.340404504331662,0.01493863202631474,-0.1088387444615364,0.008810660801827908,0.003372699022293091,-0.02291345596313477,0.002504944801330566,XArbitraryCorrectedZVertical,-0.3682822585105896,0.527042031288147,0.5543158650398254,-0.5285096764564514,-0.1488042324781418,-0.9735770225524902,-0.1731897443532944,-11.80260276794434,-59.24555206298828,-24.82675170898438,2
2017-12-04 17:02:38.792 -0800,76,C4D50155-580C-4885-BACB-A13DEF47355A,1512435758.441263,49.277167311615,-122.907428644096,343.2689,-1,-1,10,65,-9999,117270.2167615,-0.138031005859375,-0.9467010498046875,-0.18511962890625,117270.1906995,-0.09539842498827343,-0.05824013724672485,0.06190731006776395,117270.2016855,-1.047089124936248,-0.7129206141534883,1.337805879765816,-0.08372976630926132,-0.04820961505174637,0.05180090293288231,0.01201754808425903,-0.004207849502563477,0.005493283271789551,XArbitraryCorrectedZVertical,-0.3664309680461884,0.5276455879211426,0.5549796223640442,-0.5284968018531799,-0.1509945690631866,-0.972980260848999,-0.1746369600296021,-12.05995273590088,-59.04252243041992,-24.537353515625,2
2017-12-04 17:02:38.822 -0800,77,C4D50155-580C-4885-BACB-A13DEF47355A,1512435758.441263,49.277167311615,-122.907428644096,343.2689,-1,-1,10,65,-9999,117270.2468215,-0.14111328125,-0.9744110107421875,-0.175506591796875,117270.2207595,-0.06347378142094856,-0.03693538115830895,-0.03848534091273507,117270.2367815,-1.054724148836482,-0.7068351326715379,1.336635013869028,-0.01958359032869339,-0.03969227522611618,-0.06291676312685013,0.003865212202072144,0.0158306360244751,-0.007738113403320312,XArbitraryCorrectedZVertical,-0.3656716644763947,0.5273273587226868,0.5559151172637939,-0.5283575654029846,-0.1506699919700623,-0.9727092981338501,-0.1764201819896698,-12.09663867950439,-59.04247665405273,-24.62652587890625,2
2017-12-04 17:02:38.852 -0800,78,C4D50155-580C-4885-BACB-A13DEF47355A,1512435758.441263,49.277167311615,-122.907428644096,343.2689,-1,-1,10,65,-9999,117270.2768815,-0.1194305419921875,-0.9923858642578125,-0.1721954345703125,117270.2508195,-0.02361637991460467,0.02982234420281632,-0.03971465607191565,117270.2718455,-1.058580168629764,-0.7010455642729772,1.337253201280346,0.01343063171952963,0.2084114998579025,0.008484791032969952,0.03114053606987,-0.006654918193817139,-0.003573894500732422,XArbitraryCorrectedZVertical,-0.3664949536323547,0.5265606045722961,0.5558555722236633,-0.5286146998405457,-0.1492588222026825,-0.9728525280952454,-0.1768307536840439,-12.1393518447876,-58.90946960449219,-24.61129760742188,2
2017-12-04 17:02:38.882 -0800,79,C4D50155-580C-4885-BACB-A13DEF47355A,1512435758.441263,49.277167311615,-122.907428644096,343.2689,-1,-1,10,65,-9999,117270.3069415,-0.140533447265625,-0.9553375244140625,-0.217437744140625,117270.2808795,0.02332689430411305,0.2810724182919438,0.02982420841557937,117270.2718455,-1.058580168629764,-0.7010455642729772,1.337253201280346,0.01343063171952963,0.2084114998579025,0.008484791032969952,0.03114053606987,-0.006654918193817139,-0.003573894500732422,XArbitraryCorrectedZVertical,-0.3664949536323547,0.5265606045722961,0.5558555722236633,-0.5286146998405457,-0.1492588222026825,-0.9728525280952454,-0.1768307536840439,-12.1393518447876,-58.90946960449219,-24.61129760742188,2
2017-12-04 17:02:38.912 -0800,80,C4D50155-580C-4885-BACB-A13DEF47355A,1512435758.441263,49.277167311615,-122.907428644096,343.2689,-1,-1,10,65,-9999,117270.3370005,-0.1413421630859375,-1.035751342773438,-0.16815185546875,117270.3109385,0.2432446118523494,-0.1402801462071608,-0.2032284859450368,117270.3069415,-1.05371904883332,-0.6983921534671993,1.339833081482479,0.1739622205495834,0.03848586603999138,-0.1187074482440948,0.006641417741775513,0.01810884475708008,-0.04213428497314453,XArbitraryCorrectedZVertical,-0.3694685697555542,0.5252059102058411,0.5540016889572144,-0.5298372507095337,-0.1471748948097229,-0.9734463691711426,-0.1753034591674805,-11.60258293151855,-59.03418731689453,-24.91537475585938,2
2017-12-04 17:02:38.949 -0800,81,C4D50155-580C-4885-BACB-A13DEF47355A,1512435758.441263,49.277167311615,-122.907428644096,343.2689,-1,-1,10,65,-9999,117270.3670605,-0.146484375,-0.9542999267578125,-0.1521453857421875,117270.3409985,0.1528880834398139,-0.3352826601771608,-0.2191946693122798,117270.3419755,-1.055205712280153,-0.7059599127978787,1.351948153066068,0.1996268033981323,-0.3518415689468384,-0.2297795414924622,-0.0005077719688415527,-0.05960315465927124,-0.002955615520477295,XArbitraryCorrectedZVertical,-0.3714750707149506,0.5285907387733459,0.5554196238517761,-0.5235463380813599,-0.1408344060182571,-0.9761481881141663,-0.1651962101459503,-11.48476982116699,-58.98540115356445,-24.42037963867188,2
2017-12-04 17:02:38.972 -0800,82,C4D50155-580C-4885-BACB-A13DEF47355A,1512435758.441263,49.277167311615,-122.907428644096,343.2689,-1,-1,10,65,-9999,117270.3971205,-0.1707305908203125,-0.997314453125,-0.1579132080078125,117270.3710585,0.1016206345591346,0.005269064216721773,-0.122540563870034,117270.3770705,-1.062742457527826,-0.7049875796787641,1.358891500671043,0.1129238307476044,0.01101964805275202,-0.1145849525928497,-0.01769819855690002,0.02920675277709961,0.001475691795349121,XArbitraryCorrectedZVertical,-0.3723204731941223,0.5303714871406555,0.5569786429405212,-0.5194730162620544,-0.1362782418727875,-0.9776320457458496,-0.1601670980453491,-11.17560195922852,-59.31742858886719,-24.1009521484375,2
2017-12-04 17:02:39.002 -0800,83,C4D50155-580C-4885-BACB-A13DEF47355A,1512435758.441263,49.277167311615,-122.907428644096,343.2689,-1,-1,10,65,-9999,117270.4271805,-0.1800537109375,-0.9996490478515625,-0.1712646484375,117270.4011185,-0.05426084194592844,0.1699946323858289,-0.07184835778481173,117270.4121355,-1.071246258007901,-0.6920275105558632,1.361037050670798,-0.1031138226389885,0.1313145905733109,-0.05553919821977615,-0.04744628071784973,-0.04021424055099487,0.01690137386322021,XArbitraryCorrectedZVertical,-0.3744692802429199,0.5287920236587524,0.556692361831665,-0.519845187664032,-0.1328516006469727,-0.9780810475349426,-0.1603035032749176,-10.88042640686035,-59.24805450439453,-23.8475341796875,2
2017-12-04 17:02:39.032 -0800,84,C4D50155-580C-4885-BACB-A13DEF47355A,1512435758.441263,49.277167311615,-122.907428644096,343.2689,-1,-1,10,65,-9999,117270.4572405,-0.1834259033203125,-0.946929931640625,-0.1704254150390625,117270.4311785,-0.2865657206724503,0.08233561984143477,-0.0008436894333371026,117270.4472305,-1.096803627542682,-0.6640357406793402,1.35440589288029,-0.2967619299888611,0.1421276032924652,0.08554541319608688,-0.05389487743377686,0.02303504943847656,-0.008258402347564697,XArbitraryCorrectedZVertical,-0.3730936944484711,0.5256130695343018,0.558396577835083,-0.522225022315979,-0.1323081105947495,-0.9766787886619568,-0.1690639853477478,-10.7287483215332,-59.15311050415039,-24.11257934570312,2
2017-12-04 17:02:39.062 -0800,85,C4D50155-580C-4885-BACB-A13DEF47355A,1512435758.441263,49.277167311615,-122.907428644096,343.2689,-1,-1,10,65,-9999,117270.4872995,-0.1534423828125,-0.9253692626953125,-0.1846466064453125,117270.4612375,-0.2415329982197554,0.3015342838953497,0.2142843328943917,117270.4822645,-1.090811224276199,-0.6611152390739963,1.344983940461146,-0.02100815996527672,0.1965430080890656,0.1864905804395676,-0.02345985174179077,0.03598344326019287,-0.008351385593414307,XArbitraryCorrectedZVertical,-0.3720097839832306,0.5227380990982056,0.556704580783844,-0.5276623964309692,-0.1374593675136566,-0.9746125340461731,-0.1767072081565857,-10.75496864318848,-58.90867233276367,-24.7449951171875,2
2017-12-04 17:02:39.092 -0800,86,C4D50155-580C-4885-BACB-A13DEF47355A,1512435758.441263,49.277167311615,-122.907428644096,343.2689,-1,-1,10,65,-9999,117270.5173595,-0.132965087890625,-0.943572998046875,-0.1809234619140625,117270.4912975,0.1146035448732708,0.04733529153117739,0.1011394013501572,117270.4822645,-1.090811224276199,-0.6611152390739963,1.344983940461146,-0.02100815996527672,0.1965430080890656,0.1864905804395676,-0.02345985174179077,0.03598344326019287,-0.008351385593414307,XArbitraryCorrectedZVertical,-0.3720097839832306,0.5227380990982056,0.556704580783844,-0.5276623964309692,-0.1374593675136566,-0.9746125340461731,-0.1767072081565857,-10.75496864318848,-58.90867233276367,-24.7449951171875,2
2017-12-04 17:02:39.122 -0800,87,C4D50155-580C-4885-BACB-A13DEF47355A,1512435758.441263,49.277167311615,-122.907428644096,343.2689,-1,-1,10,65,-9999,117270.5474195,-0.11016845703125,-0.97283935546875,-0.15277099609375,117270.5213575,0.0873548795479071,-0.1837685015437187,0.01180632574453928,117270.5173595,-1.066741805792091,-0.6850360062854051,1.346235738690178,0.1207733079791069,-0.1452035307884216,0.04364790022373199,0.007909059524536133,0.03131908178329468,-0.008500099182128906,XArbitraryCorrectedZVertical,-0.3721283376216888,0.524698793888092,0.5547539591789246,-0.5276870131492615,-0.1408741474151611,-0.9748920202255249,-0.1724233478307724,-10.83960723876953,-58.9605598449707,-24.76791381835938,2
2017-12-04 17:02:39.152 -0800,88,C4D50155-580C-4885-BACB-A13DEF47355A,1512435758.441263,49.277167311615,-122.907428644096,343.2689,-1,-1,10,65,-9999,117270.5774795,-0.15008544921875,-1.005844116210938,-0.1678619384765625,117270.5514475,0.1129172312710327,-0.1009335389978941,-0.07366623154489982,117270.5524245,-1.057954719578913,-0.700027414796377,1.349416861357389,0.1260842680931091,-0.1418691277503967,-0.06472494453191757,0.03127491474151611,0.002756118774414062,0.01514714956283569,XArbitraryCorrectedZVertical,-0.3714581727981567,0.5273137092590332,0.5551191568374634,-0.5251622200012207,-0.1414433866739273,-0.9755954742431641,-0.1679181605577469,-11.18781471252441,-59.13855743408203,-24.49343872070312,2
2017-12-04 17:02:39.189 -0800,89,C4D50155-580C-4885-BACB-A13DEF47355A,1512435758.441263,49.277167311615,-122.907428644096,343.2689,-1,-1,10,65,-9999,117270.6075395,-0.12799072265625,-0.9780120849609375,-0.154266357421875,117270.5815075,-0.01784717404516601,-0.01576005469887092,-0.07481405397472397,117270.5875195,-1.05955133275202,-0.699601063859372,1.352411498062541,-0.006536399014294147,-0.0301443487405777,-0.07328683137893677,-0.004538744688034058,-0.01267349720001221,-0.004302620887756348,XArbitraryCorrectedZVertical,-0.3722648024559021,0.5277767181396484,0.5553606748580933,-0.52386873960495,-0.1394889801740646,-0.9762486815452576,-0.1657413095235825,-11.00508689880371,-59.31290817260742,-24.173095703125,2
2017-12-04 17:02:39.212 -0800,90,C4D50155-580C-4885-BACB-A13DEF47355A,1512435758.441263,49.277167311615,-122.907428644096,343.2689,-1,-1,10,65,-9999,117270.6375995,-0.1242828369140625,-0.9769744873046875,-0.1943511962890625,117270.6115675,-0.08859271682257594,-0.05495566067433012,-0.01346867089696674,117270.6225535,-1.071562830429877,-0.6904341619496065,1.352416954023019,-0.1109495535492897,-0.02901874110102654,0.03007366880774498,0.01474395394325256,-0.0285872220993042,0.008788406848907471,XArbitraryCorrectedZVertical,-0.3716461062431335,0.5276132822036743,0.5567999482154846,-0.522943377494812,-0.1379586756229401,-0.9762498140335083,-0.16700679063797,-11.03604507446289,-59.3122673034668,-24.1983642578125,2
2017-12-04 17:02:39.243 -0800,91,C4D50155-580C-4885-BACB-A13DEF47355A,1512435758.441263,49.277167311615,-122.907428644096,343.2689,-1,-1,10,65,-9999,117270.6676585,-0.147613525390625,-0.9681549072265625,-0.178192138671875,117270.6416275,-0.1505482301060703,0.07129814870360136,0.0803438416621645,117270.6576495,-1.075235899426561,-0.6855038661653974,1.347332790480239,-0.08371763676404953,0.07481870055198669,0.08506707847118378,-0.00270158052444458,-0.00138092041015625,-0.0019989013671875,XArbitraryCorrectedZVertical,-0.3701712489128113,0.5265085101127625,0.5570374727249146,-0.5248460173606873,-0.1402732729911804,-0.9751357436180115,-0.1715240776538849,-11.002197265625,-59.38172912597656,-24.48480224609375,2
2017-12-04 17:02:39.273 -0800,92,C4D50155-580C-4885-BACB-A13DEF47355A,1512435758.441263,49.277167311615,-122.907428644096,343.2689,-1,-1,10,65,-9999,117270.6977185,-0.1499786376953125,-0.9821014404296875,-0.1653289794921875,117270.6716875,0.001864745395273483,0.06572947886424568,0.03209854798650704,117270.6926835,-1.069344620876319,-0.6897826560801836,1.346763332731982,0.05270758271217346,-0.0102557148784399,0.01400063000619411,-0.009473860263824463,0.004977703094482422,-0.01196849346160889,XArbitraryCorrectedZVertical,-0.3703204691410065,0.5264859199523926,0.5563034415245056,-0.5255414843559265,-0.1413592845201492,-0.9750093817710876,-0.1713506579399109,-11.2028636932373,-59.24285888671875,-24.5997314453125,2
2017-12-04 17:02:39.303 -0800,93,C4D50155-580C-4885-BACB-A13DEF47355A,1512435758.441263,49.277167311615,-122.907428644096,343.2689,-1,-1,10,65,-9999,117270.7278095,-0.158721923828125,-0.9828948974609375,-0.1630096435546875,117270.7017465,0.04784581951214558,-0.02875494923791256,0.0008149272935642469,117270.6926835,-1.069344620876319,-0.6897826560801836,1.346763332731982,0.05270758271217346,-0.0102557148784399,0.01400063000619411,-0.009473860263824463,0.004977703094482422,-0.01196849346160889,XArbitraryCorrectedZVertical,-0.3703204691410065,0.5264859199523926,0.5563034415245056,-0.5255414843559265,-0.1413592845201492,-0.9750093817710876,-0.1713506579399109,-11.2028636932373,-59.24285888671875,-24.5997314453125,2
2017-12-04 17:02:39.333 -0800,94,C4D50155-580C-4885-BACB-A13DEF47355A,1512435758.441263,49.277167311615,-122.907428644096,343.2689,-1,-1,10,65,-9999,117270.7578685,-0.1573333740234375,-0.9786529541015625,-0.1477508544921875,117270.7318065,0.02533545039825082,-0.0149259526454581,0.01000389831877365,117270.7278095,-1.063253622798071,-0.6971679907471839,1.34826170760571,0.05060697719454765,-0.04737284034490585,0.002173226792365313,-0.01703912019729614,-0.007553696632385254,0.006172299385070801,XArbitraryCorrectedZVertical,-0.3704265654087067,0.5274402499198914,0.5560195446014404,-0.5248098373413086,-0.1416828483343124,-0.9753412008285522,-0.1691818833351135,-11.11156845092773,-59.22226333618164,-24.66094970703125,2
2017-12-04 17:02:39.363 -0800,95,C4D50155-580C-4885-BACB-A13DEF47355A,1512435758.441263,49.277167311615,-122.907428644096,343.2689,-1,-1,10,65,-9999,117270.7879285,-0.147857666015625,-0.97564697265625,-0.1673126220703125,117270.7618665,0.005258411572361456,0.04028377359686558,0.01508361178199079,117270.7628435,-1.057325381906322,-0.7023689461083477,1.348371923068902,0.01534784119576216,0.04285583272576332,0.02939113788306713,-0.01484167575836182,-0.003287434577941895,0.02061015367507935,XArbitraryCorrectedZVertical,-0.3705861270427704,0.5277171730995178,0.5554233193397522,-0.5250502228736877,-0.1424916833639145,-0.9753655195236206,-0.1683610081672668,-11.346266746521,-59.29701995849609,-24.53598022460938,2
2017-12-04 17:02:39.393 -0800,96,C4D50155-580C-4885-BACB-A13DEF47355A,1512435758.441263,49.277167311615,-122.907428644096,343.2689,-1,-1,10,65,-9999,117270.8179885,-0.1308441162109375,-0.9712066650390625,-0.172576904296875,117270.7919265,-0.0425296173441294,-0.04443750594906217,-0.02003655877732016,117270.7979385,-1.057951667729823,-0.7023908121251636,1.348474890396016,-0.03126270696520805,-0.05246947333216667,-0.01424133032560349,-0.003062218427658081,-0.002456068992614746,-0.004494190216064453,XArbitraryCorrectedZVertical,-0.3704529404640198,0.5278485417366028,0.5555885434150696,-0.5248372554779053,-0.1424303352832794,-0.97538822889328,-0.168281078338623,-11.28012466430664,-59.26654434204102,-24.43826293945312,2
2017-12-04 17:02:39.429 -0800,97,C4D50155-580C-4885-BACB-A13DEF47355A,1512435758.441263,49.277167311615,-122.907428644096,343.2689,-1,-1,10,65,-9999,117270.8480485,-0.1355743408203125,-0.982696533203125,-0.1751251220703125,117270.8219865,-0.02847185521403714,-0.09748208222515142,-0.04436560059963003,117270.8329725,-1.063427752674694,-0.6999804204142895,1.348246291290731,-0.007531866431236267,-0.1097614169120789,-0.043718621134758,0.01747250556945801,0.004314243793487549,-0.006590843200683594,XArbitraryCorrectedZVertical,-0.3695925176143646,0.5282087922096252,0.5565862655639648,-0.5240234136581421,-0.1421673148870468,-0.9753378033638,-0.1687936782836914,-11.41256141662598,-59.31084442138672,-24.22979736328125,2
2017-12-04 17:02:39.453 -0800,98,C4D50155-580C-4885-BACB-A13DEF47355A,1512435758.441263,49.277167311615,-122.907428644096,343.2689,-1,-1,10,65,-9999,117270.878113125,-0.1525421142578125,-0.9878692626953125,-0.1474761962890625,117270.852051125,-0.0002743055922781615,-0.06356992153630042,-0.05865186195125109,117270.868072125,-1.068139250200626,-0.6980280562974612,1.349621566621911,0.02911083213984966,-0.01860461011528969,-0.03750386834144592,-0.009111851453781128,-0.01143538951873779,0.0095481276512146,XArbitraryCorrectedZVertical,-0.3694004118442535,0.5286991000175476,0.5574128031730652,-0.5227838158607483,-0.1409736275672913,-0.9756404161453247,-0.1680411994457245,-11.41146850585938,-59.20341491699219,-24.54400634765625,2
2017-12-04 17:02:39.483 -0800,99,C4D50155-580C-4885-BACB-A13DEF47355A,1512435758.441263,49.277167311615,-122.907428644096,343.2689,-1,-1,10,65,-9999,117270.908172125,-0.128662109375,-0.9885406494140625,-0.154266357421875,117270.882110125,0.04734221575001159,0.0625001297264156,-0.003228283873394053,117270.903137125,-1.062909113682489,-0.7015181125283494,1.351302548383837,0.0694606751203537,0.05235131829977036,-0.007871738635003567,0.009183436632156372,-0.006108880043029785,0.01297485828399658,XArbitraryCorrectedZVertical,-0.3704334795475006,0.5288019180297852,0.556634247303009,-0.5227784514427185,-0.1405005753040314,-0.9760078191757202,-0.1662951409816742,-11.42258739471436,-59.34228515625,-24.40615844726562,2
2017-12-04 17:02:39.513 -0800,100,C4D50155-580C-4885-BACB-A13DEF47355A,1512435758.441263,49.277167311615,-122.907428644096,343.2689,-1,-1,10,65,-9999,117270.938232125,-0.15350341796875,-0.971771240234375,-0.173431396484375,117270.912170125,0.04646204100974041,0.03176059284417599,-0.02139849935878668,117270.903137125,-1.062909113682489,-0.7015181125283494,1.351302548383837,0.0694606751203537,0.05235131829977036,-0.007871738635003567,0.009183436632156372,-0.006108880043029785,0.01297485828399658,XArbitraryCorrectedZVertical,-0.3704334795475006,0.5288019180297852,0.556634247303009,-0.5227784514427185,-0.1405005753040314,-0.9760078191757202,-0.1662951409816742,-11.42258739471436,-59.34228515625,-24.40615844726562,2
2017-12-04 17:02:39.543 -0800,101,C4D50155-580C-4885-BACB-A13DEF47355A,1512435758.441263,49.277167311615,-122.907428644096,343.2689,-1,-1,10,65,-9999,117270.968292125,-0.1141815185546875,-0.978271484375,-0.174102783203125,117270.942230125,0.02773895328204733,-0.01809138591712628,-0.004848551080598261,117270.938232125,-1.058201854431762,-0.7056942625170405,1.353326145387548,0.06270218640565872,-0.01660682819783688,-0.008163593709468842,-0.01359030604362488,0.004675149917602539,-0.009227514266967773,XArbitraryCorrectedZVertical,-0.3712663650512695,0.5292063355445862,0.5561124086380005,-0.5223338603973389,-0.1399131119251251,-0.9764463901519775,-0.1642038822174072,-11.50145816802979,-59.42414093017578,-24.11984252929688,2
2017-12-04 17:02:39.573 -0800,102,C4D50155-580C-4885-BACB-A13DEF47355A,1512435758.441263,49.277167311615,-122.907428644096,343.2689,-1,-1,10,65,-9999,117270.998352125,-0.1218109130859375,-0.9830474853515625,-0.1314239501953125,117270.972290125,-0.06611217511289007,-0.02000087241871309,-0.007651261811797651,117270.973266125,-1.058556320730923,-0.707162492234449,1.353163321611482,-0.0560375340282917,-0.04498323425650597,-0.0008535082451999187,0.02607670426368713,-0.001860260963439941,-0.009982585906982422,XArbitraryCorrectedZVertical,-0.3707039654254913,0.5296399593353271,0.5564820766448975,-0.5219002366065979,-0.1402582079172134,-0.9764112830162048,-0.1641201674938202,-11.52954483032227,-59.31756591796875,-24.15469360351562,2
2017-12-04 17:02:39.603 -0800,103,C4D50155-580C-4885-BACB-A13DEF47355A,1512435758.441263,49.277167311615,-122.907428644096,343.2689,-1,-1,10,65,-9999,117271.028412125,-0.1390228271484375,-0.9799041748046875,-0.1718597412109375,117271.002350125,0.04185983232997447,0.1315228735946533,-0.03187803824824848,117271.008362125,-1.060629312233555,-0.7029354004087958,1.353727666719891,0.05633315071463585,0.1224374622106552,-0.02708857506513596,0.004134833812713623,-0.009673118591308594,0.03079044818878174,XArbitraryCorrectedZVertical,-0.3715400099754333,0.5289737582206726,0.5562211871147156,-0.5222588777542114,-0.1392056345939636,-0.9765329360961914,-0.1642895638942719,-11.43266677856445,-59.44981384277344,-24.44705200195312,2
2017-12-04 17:02:39.633 -0800,104,C4D50155-580C-4885-BACB-A13DEF47355A,1512435758.441263,49.277167311615,-122.907428644096,343.2689,-1,-1,10,65,-9999,117271.058471125,-0.1218719482421875,-0.97314453125,-0.1732177734375,117271.032409125,-0.0006546049959414768,0.02760925733696047,-0.01377120599679974,117271.043426125,-1.059301453425751,-0.702296946065989,1.35503871346689,0.006122214253991842,0.03547795861959457,0.007932147011160851,0.008222013711929321,-0.007163763046264648,-0.005270719528198242,XArbitraryCorrectedZVertical,-0.3725537955760956,0.5286810994148254,0.5557127594947815,-0.5223739743232727,-0.1382727026939392,-0.9768145084381104,-0.1633999347686768,-11.0890941619873,-59.26469802856445,-24.28622436523438,2
2017-12-04 17:02:39.669 -0800,105,C4D50155-580C-4885-BACB-A13DEF47355A,1512435758.441263,49.277167311615,-122.907428644096,343.2689,-1,-1,10,65,-9999,117271.088531125,-0.138519287109375,-0.9686126708984375,-0.1912841796875,117271.062500125,-0.02095162092787138,0.09552865356557831,0.006224340099733196,117271.078522125,-1.059325670524683,-0.6994526239238352,1.35476405715633,-0.01566841453313828,0.0875680223107338,-0.01042287796735764,0.007899075746536255,0.007975101470947266,-0.0307193398475647,XArbitraryCorrectedZVertical,-0.3732357323169708,0.5279167294502258,0.5551978349685669,-0.5232071280479431,-0.1379802525043488,-0.9767556190490723,-0.1639980226755142,-11.10626220703125,-59.37081909179688,-24.34674072265625,2
2017-12-04 17:02:39.693 -0800,106,C4D50155-580C-4885-BACB-A13DEF47355A,1512435758.441263,49.277167311615,-122.907428644096,343.2689,-1,-1,10,65,-9999,117271.118591125,-0.1411590576171875,-0.97314453125,-0.1785125732421875,117271.092560125,-0.01821442395948794,0.05845105960505912,-0.03529167813351205,117271.113556125,-1.063271837605203,-0.6943123443982415,1.355418594667882,0.007803126238286495,-0.02598182484507561,-0.04110626131296158,-0.01271754503250122,0.008862853050231934,-0.0103001594543457,XArbitraryCorrectedZVertical,-0.3738639354705811,0.5273693799972534,0.5552473068237305,-0.52325838804245,-0.1367270201444626,-0.9768957495689392,-0.1642145961523056,-11.00003623962402,-59.40042114257812,-24.2572021484375,2
2017-12-04 17:02:39.724 -0800,107,C4D50155-580C-4885-BACB-A13DEF47355A,1512435758.441263,49.277167311615,-122.907428644096,343.2689,-1,-1,10,65,-9999,117271.148651125,-0.1482696533203125,-0.991668701171875,-0.1596527099609375,117271.122619125,-0.02161927541315425,-0.05822016353854925,-0.05690642617281316,117271.113556125,-1.063271837605203,-0.6943123443982415,1.355418594667882,0.007803126238286495,-0.02598182484507561,-0.04110626131296158,-0.01271754503250122,0.008862853050231934,-0.0103001594543457,XArbitraryCorrectedZVertical,-0.3738639354705811,0.5273693799972534,0.5552473068237305,-0.52325838804245,-0.1367270201444626,-0.9768957495689392,-0.1642145961523056,-11.00003623962402,-59.40042114257812,-24.2572021484375,2
2017-12-04 17:02:39.754 -0800,108,C4D50155-580C-4885-BACB-A13DEF47355A,1512435758.441263,49.277167311615,-122.907428644096,343.2689,-1,-1,10,65,-9999,117271.178711125,-0.171783447265625,-0.9905853271484375,-0.127105712890625,117271.152679125,-0.008924519128964536,-0.01583435689328413,-0.03955326850985685,117271.148651125,-1.071026133143698,-0.6889359899026085,1.356448294198187,-0.004965216852724552,-0.06200229376554489,-0.05312726646661758,-0.01306602358818054,-0.01455342769622803,0.004519224166870117,XArbitraryCorrectedZVertical,-0.3736935555934906,0.5275103449821472,0.5562312602996826,-0.5221922993659973,-0.1352035999298096,-0.977115273475647,-0.1641719192266464,-10.93193626403809,-59.2094841003418,-24.3558349609375,2
2017-12-04 17:02:39.784 -0800,109,C4D50155-580C-4885-BACB-A13DEF47355A,1512435758.441263,49.277167311615,-122.907428644096,343.2689,-1,-1,10,65,-9999,117271.208801125,-0.1359710693359375,-0.9793243408203125,-0.1715850830078125,117271.182739125,0.0379686876612597,0.08578627766585044,0.0466399401705577,117271.183716125,-1.068337022223973,-0.6904748459850203,1.356808831984821,0.04398006200790405,0.08202532678842545,0.04915858805179596,-0.03655213117599487,-0.01339340209960938,0.03658586740493774,XArbitraryCorrectedZVertical,-0.3741080462932587,0.5274441838264465,0.5558034181594849,-0.5224177241325378,-0.1352313160896301,-0.9771919250488281,-0.1636916100978851,-11.0141658782959,-59.36668395996094,-24.13650512695312,2
2017-12-04 17:02:39.814 -0800,110,C4D50155-580C-4885-BACB-A13DEF47355A,1512435758.441263,49.277167311615,-122.907428644096,343.2689,-1,-1,10,65,-9999,117271.238861125,-0.13543701171875,-0.9884185791015625,-0.1697235107421875,117271.212799125,0.001437574356424773,0.01593502438248912,-0.01482421989181707,117271.218811125,-1.062031129297653,-0.695517481717098,1.35750569672453,0.01057418528944254,0.01004301104694605,-0.009062171913683414,-0.001161515712738037,-0.004487156867980957,-0.01145064830780029,XArbitraryCorrectedZVertical,-0.3746283650398254,0.527647078037262,0.55507493019104,-0.5226143598556519,-0.1356182545423508,-0.9773396849632263,-0.1624843031167984,-10.81073951721191,-59.52996063232422,-24.2347412109375,2
2017-12-04 17:02:39.845 -0800,111,C4D50155-580C-4885-BACB-A13DEF47355A,1512435758.441263,49.277167311615,-122.907428644096,343.2689,-1,-1,10,65,-9999,117271.268921125,-0.111785888671875,-0.9726104736328125,-0.1746978759765625,117271.242859125,-0.08720734042351672,0.07551659587028688,0.006015015638052968,117271.253845125,-1.065918874327717,-0.6900168236352141,1.356039147128706,-0.07693701982498169,0.05902174115180969,0.005391336046159267,0.01203876733779907,0.001884698867797852,-0.00812143087387085,XArbitraryCorrectedZVertical,-0.3745882213115692,0.5267987847328186,0.5551137328147888,-0.5234570503234863,-0.1356349438428879,-0.9770281910896301,-0.1643334031105042,-10.78460121154785,-59.42187881469727,-24.486572265625,2
2017-12-04 17:02:39.874 -0800,112,C4D50155-580C-4885-BACB-A13DEF47355A,1512435758.441263,49.277167311615,-122.907428644096,343.2689,-1,-1,10,65,-9999,117271.298980125,-0.1279296875,-0.9767303466796875,-0.167266845703125,117271.272918125,-0.06601896447473729,0.04045874328048379,0.004195011349092816,117271.288940125,-1.070255105591878,-0.6843538198834352,1.354439585230474,-0.01738664880394936,0.05144345760345459,0.01391784101724625,0.005198389291763306,0.002748012542724609,0.008856117725372314,XArbitraryCorrectedZVertical,-0.3744282722473145,0.5259730815887451,0.555247962474823,-0.5242593884468079,-0.1356915831565857,-0.9766860604286194,-0.166311576962471,-10.66414451599121,-59.35674667358398,-24.38214111328125,2
2017-12-04 17:02:39.908 -0800,113,C4D50155-580C-4885-BACB-A13DEF47355A,1512435758.441263,49.277167311615,-122.907428644096,343.2689,-1,-1,10,65,-9999,117271.329040125,-0.14959716796875,-0.9939117431640625,-0.191864013671875,117271.302978125,0.004003263750607111,0.09020366296596487,-0.01672465164569762,117271.324005125,-1.07095067796674,-0.6812268140340589,1.354957231850921,-0.003614356741309166,0.05361472815275192,-0.03580743446946144,0.001079320907592773,-0.01444441080093384,-0.018105149269104,XArbitraryCorrectedZVertical,-0.3753045499324799,0.5253331661224365,0.5548240542411804,-0.5247232913970947,-0.1348531097173691,-0.9767970442771912,-0.1663431227207184,-10.57466506958008,-59.20430374145508,-24.59722900390625,2
2017-12-04 17:02:39.934 -0800,114,C4D50155-580C-4885-BACB-A13DEF47355A,1512435758.441263,49.277167311615,-122.907428644096,343.2689,-1,-1,10,65,-9999,117271.359100125,-0.162384033203125,-0.9640045166015625,-0.1865997314453125,117271.333038125,-0.04100628920060408,0.02665371513784004,-0.02409095522085679,117271.324005125,-1.07095067796674,-0.6812268140340589,1.354957231850921,-0.003614356741309166,0.05361472815275192,-0.03580743446946144,0.001079320907592773,-0.01444441080093384,-0.018105149269104,XArbitraryCorrectedZVertical,-0.3753045499324799,0.5253331661224365,0.5548240542411804,-0.5247232913970947,-0.1348531097173691,-0.9767970442771912,-0.1663431227207184,-10.57466506958008,-59.20430374145508,-24.59722900390625,2
2017-12-04 17:02:39.964 -0800,115,C4D50155-580C-4885-BACB-A13DEF47355A,1512435758.441263,49.277167311615,-122.907428644096,343.2689,-1,-1,10,65,-9999,117271.389160125,-0.16204833984375,-0.97845458984375,-0.1866912841796875,117271.363098125,-0.02688860594598503,0.004284759877828486,0.01227557472861124,117271.359100125,-1.074578332986503,-0.6768438232466127,1.354508806803224,-0.01878960430622101,0.01008361764252186,0.019111642614007,-0.02798742055892944,0.01269638538360596,-0.01932626962661743,XArbitraryCorrectedZVertical,-0.3754026293754578,0.52482008934021,0.5549713969230652,-0.5250104665756226,-0.1343966424465179,-0.9767009019851685,-0.1672734767198563,-10.55328369140625,-59.29270935058594,-24.74337768554688,2
2017-12-04 17:02:39.995 -0800,116,C4D50155-580C-4885-BACB-A13DEF47355A,1512435758.441263,49.277167311615,-122.907428644096,343.2689,-1,-1,10,65,-9999,117271.419220125,-0.18084716796875,-0.983062744140625,-0.1718902587890625,117271.393158125,-0.05268824532223666,-0.0688525678745816,0.002050634039361014,117271.394134125,-1.07572440006433,-0.6768197176124197,1.353730534786089,-0.03815344721078873,-0.07475762069225311,0.004721413366496563,-0.02717918157577515,-0.001920998096466064,-0.01882141828536987,XArbitraryCorrectedZVertical,-0.3748214244842529,0.5249513983726501,0.5552987456321716,-0.5249484777450562,-0.1348691433668137,-0.9765335917472839,-0.1678698509931564,-10.55657768249512,-59.52453231811523,-24.693359375,2
2017-12-04 17:02:40.024 -0800,117,C4D50155-580C-4885-BACB-A13DEF47355A,1512435758.441263,49.277167311615,-122.907428644096,343.2689,-1,-1,10,65,-9999,117271.449280125,-0.1681365966796875,-0.9710693359375,-0.18572998046875,117271.423218125,-0.01542423008541192,-0.03508901157455702,0.07088589136685709,117271.429230125,-1.072984066733133,-0.6818140144429881,1.352259880928047,-0.000975094735622406,-0.03992482274770737,0.07781287282705307,-0.04182469844818115,-0.008143961429595947,0.006185472011566162,XArbitraryCorrectedZVertical,-0.3736112713813782,0.5256040096282959,0.5555716156959534,-0.5248696804046631,-0.1366115808486938,-0.9762157797813416,-0.1683100908994675,-10.74918365478516,-59.31842041015625,-24.66665649414062,2
2017-12-04 17:02:40.054 -0800,118,C4D50155-580C-4885-BACB-A13DEF47355A,1512435758.441263,49.277167311615,-122.907428644096,343.2689,-1,-1,10,65,-9999,117271.479339125,-0.1246795654296875,-0.9726715087890625,-0.1640167236328125,117271.453277125,-0.01005023732174103,0.0465659042922535,0.09138903596715914,117271.464294125,-1.06078931459912,-0.6932373274795217,1.350055730155959,0.008063783869147301,0.06720815598964691,0.08142860978841782,-0.01015555858612061,0.00730597972869873,-0.01396524906158447,XArbitraryCorrectedZVertical,-0.372831791639328,0.5261180400848389,0.5545803308486938,-0.525955855846405,-0.1398993730545044,-0.9757355451583862,-0.1683925241231918,-10.9056453704834,-59.39662170410156,-24.458740234375,2
2017-12-04 17:02:40.084 -0800,119,C4D50155-580C-4885-BACB-A13DEF47355A,1512435758.441263,49.277167311615,-122.907428644096,343.2689,-1,-1,10,65,-9999,117271.509399125,-0.11529541015625,-0.9784088134765625,-0.14190673828125,117271.483337125,0.008907474897988028,0.07106805158541851,0.0003360909295679999,117271.499389125,-1.05539722760794,-0.6960770640111181,1.349976878174901,0.02685920707881451,0.0397145077586174,-0.01507150195538998,0.02055293321609497,-0.006261110305786133,0.02037858963012695,XArbitraryCorrectedZVertical,-0.3734337985515594,0.5258522629737854,0.5536938905715942,-0.5267277956008911,-0.140425980091095,-0.9757183194160461,-0.1680531948804855,-11.05412673950195,-59.20497131347656,-24.6644287109375,2
2017-12-04 17:02:40.114 -0800,120,C4D50155-580C-4885-BACB-A13DEF47355A,1512435758.441263,49.277167311615,-122.907428644096,343.2689,-1,-1,10,65,-9999,117271.539459125,-0.0870208740234375,-0.9654388427734375,-0.1624603271484375,117271.513397125,0.0296202102760793,0.02757410361057143,-0.03448207716212796,117271.534424125,-1.054787410095808,-0.695767714460391,1.351610783663071,0.03487261757254601,0.02066396176815033,-0.04900086298584938,0.05133959650993347,0.01258909702301025,0.01489567756652832,XArbitraryCorrectedZVertical,-0.3742853999137878,0.525807797908783,0.5534214377403259,-0.5264542102813721,-0.1393523365259171,-0.9760748744010925,-0.1668732017278671,-10.84270477294922,-59.31145858764648,-24.53817749023438,2
2017-12-04 17:02:40.149 -0800,121,C4D50155-580C-4885-BACB-A13DEF47355A,1512435758.441263,49.277167311615,-122.907428644096,343.2689,-1,-1,10,65,-9999,117271.569519125,-0.1316680908203125,-0.99810791015625,-0.162353515625,117271.543487125,0.003428819903477019,-0.01475178191016692,-0.07122784125082328,117271.534424125,-1.054787410095808,-0.695767714460391,1.351610783663071,0.03487261757254601,0.02066396176815033,-0.04900086298584938,0.05133959650993347,0.01258909702301025,0.01489567756652832,XArbitraryCorrectedZVertical,-0.3742853999137878,0.525807797908783,0.5534214377403259,-0.5264542102813721,-0.1393523365259171,-0.9760748744010925,-0.1668732017278671,-10.84270477294922,-59.31145858764648,-24.53817749023438,2
2017-12-04 17:02:40.174 -0800,122,C4D50155-580C-4885-BACB-A13DEF47355A,1512435758.441263,49.277167311615,-122.907428644096,343.2689,-1,-1,10,65,-9999,117271.599579125,-0.1431427001953125,-0.988372802734375,-0.1746978759765625,117271.573547125,-0.007801996729496137,-0.02855920689779173,-0.045944322493829,117271.569519125,-1.061937164947272,-0.6900720755639013,1.353438855752154,0.0005243578925728798,-0.06730490922927856,-0.06261025369167328,0.005595624446868896,-0.0216372013092041,0.003934502601623535,XArbitraryCorrectedZVertical,-0.3746597170829773,0.5258194208145142,0.5541723370552063,-0.5253854990005493,-0.1372637003660202,-0.9764707088470459,-0.1662880629301071,-10.84511375427246,-59.44591522216797,-24.45932006835938,2
2017-12-04 17:02:40.204 -0800,123,C4D50155-580C-4885-BACB-A13DEF47355A,1512435758.441263,49.277167311615,-122.907428644096,343.2689,-1,-1,10,65,-9999,117271.629638125,-0.153900146484375,-0.9827423095703125,-0.1793670654296875,117271.603607125,-0.01779657398445451,0.01703597517712788,-0.01305002197360628,117271.604584125,-1.064307714165829,-0.6883264944871513,1.354383119081593,0.003145348280668259,0.002647935412824154,-0.01347070001065731,-0.006755053997039795,-0.01169890165328979,-0.008882403373718262,XArbitraryCorrectedZVertical,-0.3748694956302643,0.5258945822715759,0.5544336438179016,-0.524884819984436,-0.1363876461982727,-0.9766739010810852,-0.1658155024051666,-10.80996131896973,-59.35177993774414,-24.51638793945312,2
2017-12-04 17:02:40.235 -0800,124,C4D50155-580C-4885-BACB-A13DEF47355A,1512435758.441263,49.277167311615,-122.907428644096,343.2689,-1,-1,10,65,-9999,117271.659698125,-0.1545562744140625,-0.9827880859375,-0.167236328125,117271.633667125,-0.05646247721909695,0.08285653415065426,0.01829964511437048,117271.639679125,-1.066522845422708,-0.6846659312387398,1.353598633062043,-0.04413638263940811,0.07800942659378052,0.02518610656261444,-0.01981809735298157,-0.007701992988586426,-0.007913112640380859,XArbitraryCorrectedZVertical,-0.3750120401382446,0.5252737998962402,0.5543580651283264,-0.5254839658737183,-0.1362640261650085,-0.9765051603317261,-0.1669068038463593,-10.91701507568359,-59.61312484741211,-24.57147216796875,2
2017-12-04 17:02:40.265 -0800,125,C4D50155-580C-4885-BACB-A13DEF47355A,1512435758.441263,49.277167311615,-122.907428644096,343.2689,-1,-1,10,65,-9999,117271.689758125,-0.12286376953125,-0.962249755859375,-0.16162109375,117271.663727125,-0.03112516260808308,0.07217299712169239,0.02937732998466408,117271.674713125,-1.065870949943674,-0.6828160359644524,1.351985531015369,0.005702890921384096,0.05137220025062561,0.03348851948976517,-0.01049619913101196,0.007802963256835938,0.001862168312072754,XArbitraryCorrectedZVertical,-0.3750994205474854,0.524509072303772,0.5538994669914246,-0.5266679525375366,-0.1369494944810867,-0.9761562943458557,-0.1683813184499741,-10.63202095031738,-59.60433197021484,-24.5792236328125,2
2017-12-04 17:02:40.295 -0800,126,C4D50155-580C-4885-BACB-A13DEF47355A,1512435758.441263,49.277167311615,-122.907428644096,343.2689,-1,-1,10,65,-9999,117271.719848125,-0.1217041015625,-0.982147216796875,-0.1610565185546875,117271.693786125,0.04376026408385502,-0.01388332507869208,-0.004542287555239149,117271.709808125,-1.059885420088357,-0.6886742838308368,1.353101637552394,0.06503123790025711,-0.01975656673312187,-0.01982523500919342,0.02598965167999268,0.006198406219482422,0.004000425338745117,XArbitraryCorrectedZVertical,-0.3754611909389496,0.525034487247467,0.5533820986747742,-0.5264306664466858,-0.1372415125370026,-0.9763979315757751,-0.166735365986824,-10.62557601928711,-59.58151245117188,-24.53411865234375,2
2017-12-04 17:02:40.325 -0800,127,C4D50155-580C-4885-BACB-A13DEF47355A,1512435758.441263,49.277167311615,-122.907428644096,343.2689,-1,-1,10,65,-9999,117271.749908125,-0.1305389404296875,-0.9874114990234375,-0.1573638916015625,117271.723846125,0.04759947711131325,0.05297506777163819,-0.01919926093059924,117271.744873125,-1.05568332411916,-0.6911993233310717,1.354849416655039,0.03213081136345863,0.0736604630947113,-0.003191662952303886,0.0005272030830383301,-0.02099823951721191,0.005482196807861328,XArbitraryCorrectedZVertical,-0.3765130937099457,0.5250723361968994,0.5526894330978394,-0.526369571685791,-0.1365745812654495,-0.9767739176750183,-0.1650738567113876,-10.99018096923828,-59.61992645263672,-24.33575439453125,2
2017-12-04 17:02:40.355 -0800,128,C4D50155-580C-4885-BACB-A13DEF47355A,1512435758.441263,49.277167311615,-122.907428644096,343.2689,-1,-1,10,65,-9999,117271.779968125,-0.1330413818359375,-0.9770965576171875,-0.1575164794921875,117271.753906125,0.01240367277704405,0.0922953096861131,-0.009119728836867343,117271.744873125,-1.05568332411916,-0.6911993233310717,1.354849416655039,0.03213081136345863,0.0736604630947113,-0.003191662952303886,0.0005272030830383301,-0.02099823951721191,0.005482196807861328,XArbitraryCorrectedZVertical,-0.3765130937099457,0.5250723361968994,0.5526894330978394,-0.526369571685791,-0.1365745812654495,-0.9767739176750183,-0.1650738567113876,-10.99018096923828,-59.61992645263672,-24.33575439453125,2
2017-12-04 17:02:40.388 -0800,129,C4D50155-580C-4885-BACB-A13DEF47355A,1512435758.441263,49.277167311615,-122.907428644096,343.2689,-1,-1,10,65,-9999,117271.810028125,-0.1558685302734375,-0.994903564453125,-0.163726806640625,117271.783966125,0.009595369407555496,0.00324532810437056,-0.0540541806453383,117271.779968125,-1.054014969909792,-0.6898514791762418,1.355820965215864,0.02708111703395844,0.05564950406551361,-0.02247288823127747,0.002708286046981812,-0.0001149177551269531,0.007011294364929199,XArbitraryCorrectedZVertical,-0.3776829540729523,0.5244918465614319,0.5519616007804871,-0.5268743634223938,-0.1357496380805969,-0.9769816398620605,-0.1645277738571167,-10.59078598022461,-59.75270080566406,-24.3646240234375,2
2017-12-04 17:02:40.415 -0800,130,C4D50155-580C-4885-BACB-A13DEF47355A,1512435758.441263,49.277167311615,-122.907428644096,343.2689,-1,-1,10,65,-9999,117271.840088125,-0.14849853515625,-0.9766082763671875,-0.1799774169921875,117271.814026125,-0.03608902856388177,-0.0444486912256405,-0.0220445822392399,117271.815002125,-1.059927557979585,-0.6852180617042101,1.357285631604397,-0.01604039967060089,-0.05459083989262581,-0.02991705387830734,-0.02178791165351868,-0.01761054992675781,0.0003206133842468262,XArbitraryCorrectedZVertical,-0.3779536187648773,0.5245258212089539,0.5525901913642883,-0.5259870290756226,-0.13408063352108,-0.977293074131012,-0.1640474498271942,-10.72089767456055,-59.8991813659668,-24.42041015625,2
2017-12-04 17:02:40.445 -0800,131,C4D50155-580C-4885-BACB-A13DEF47355A,1512435758.441263,49.277167311615,-122.907428644096,343.2689,-1,-1,10,65,-9999,117271.870121875,-0.1356201171875,-0.9728546142578125,-0.161041259765625,117271.844085125,-0.01809298381378033,0.007467770012691192,-0.0003163835375014135,117271.850097125,-1.061894607240748,-0.6838940856103889,1.356650045158603,-0.00250364001840353,0.0005095535889267921,0.002372144255787134,0.001016318798065186,0.001206040382385254,-0.003719806671142578,XArbitraryCorrectedZVertical,-0.3775688111782074,0.5244887471199036,0.5528807044029236,-0.5259951949119568,-0.1342560946941376,-0.9771581888198853,-0.1647066920995712,-10.68980598449707,-59.85869598388672,-24.32492065429688,2
2017-12-04 17:02:40.475 -0800,132,C4D50155-580C-4885-BACB-A13DEF47355A,1512435758.441263,49.277167311615,-122.907428644096,343.2689,-1,-1,10,65,-9999,117271.900181875,-0.1318359375,-0.977752685546875,-0.1818084716796875,117271.874119875,0.01880697730203057,0.05410078596441469,-0.019728697355307,117271.885136875,-1.060779017780466,-0.6838377493904323,1.357672548878503,0.0246990192681551,0.05456974357366562,-0.009757660329341888,-0.006491303443908691,0.01172250509262085,-0.01092684268951416,XArbitraryCorrectedZVertical,-0.3782546520233154,0.5243605375289917,0.552539050579071,-0.5259890556335449,-0.1336148679256439,-0.9773749709129333,-0.163938894867897,-10.60750198364258,-59.85292816162109,-24.38262939453125,2
2017-12-04 17:02:40.505 -0800,133,C4D50155-580C-4885-BACB-A13DEF47355A,1512435758.441263,49.277167311615,-122.907428644096,343.2689,-1,-1,10,65,-9999,117271.930241875,-0.1197509765625,-0.9838104248046875,-0.1500396728515625,117271.904179875,-0.03714630351664323,9.827064422392389e-05,-0.01025796388676721,117271.920231875,-1.061923073285536,-0.6822082165266801,1.357466256124368,0.0042231110855937,-0.04614276811480522,-0.02739443629980087,0.01737052202224731,-0.0001467466354370117,0.003744602203369141,XArbitraryCorrectedZVertical,-0.3783287405967712,0.5241287350654602,0.5525394678115845,-0.5261663198471069,-0.1334746479988098,-0.977331280708313,-0.164312869310379,-10.59640693664551,-59.82846450805664,-24.52450561523438,2
2017-12-04 17:02:40.535 -0800,134,C4D50155-580C-4885-BACB-A13DEF47355A,1512435758.441263,49.277167311615,-122.907428644096,343.2689,-1,-1,10,65,-9999,117271.960301875,-0.146453857421875,-0.9874725341796875,-0.174163818359375,117271.934239875,0.06244606755628698,-0.06054590211851545,-0.04578666335729631,117271.955266875,-1.059829934608011,-0.6855971438498036,1.359932372073675,0.06425351649522781,0.0332813560962677,-0.01971278712153435,-0.004154115915298462,-0.007684230804443359,0.009328365325927734,XArbitraryCorrectedZVertical,-0.3788522779941559,0.5248568058013916,0.5525394678115845,-0.5250625014305115,-0.1325035840272903,-0.9778504371643066,-0.1619925647974014,-10.69855308532715,-59.80585479736328,-24.29705810546875,2
2017-12-04 17:02:40.565 -0800,135,C4D50155-580C-4885-BACB-A13DEF47355A,1512435758.441263,49.277167311615,-122.907428644096,343.2689,-1,-1,10,65,-9999,117271.990361875,-0.1461181640625,-0.9758148193359375,-0.1597442626953125,117271.964299875,-0.01450730372209764,0.1156685429931935,0.009582586234323115,117271.955266875,-1.059829934608011,-0.6855971438498036,1.359932372073675,0.06425351649522781,0.0332813560962677,-0.01971278712153435,-0.004154115915298462,-0.007684230804443359,0.009328365325927734,XArbitraryCorrectedZVertical,-0.3788522779941559,0.5248568058013916,0.5525394678115845,-0.5250625014305115,-0.1325035840272903,-0.9778504371643066,-0.1619925647974014,-10.69855308532715,-59.80585479736328,-24.29705810546875,2
2017-12-04 17:02:40.596 -0800,136,C4D50155-580C-4885-BACB-A13DEF47355A,1512435758.441263,49.277167311615,-122.907428644096,343.2689,-1,-1,10,65,-9999,117272.020421875,-0.1184844970703125,-0.9858245849609375,-0.158172607421875,117271.994359875,-0.02667608569099671,0.03293664478155498,0.009158078356564485,117271.990361875,-1.059222097802613,-0.6828401317302221,1.359354039875229,-0.02913499996066093,0.07268761098384857,0.02013362944126129,-0.01370519399642944,0.001914381980895996,0.003051340579986572,XArbitraryCorrectedZVertical,-0.3795592188835144,0.5239627957344055,0.5518785715103149,-0.5261386632919312,-0.1324129700660706,-0.9777292609214783,-0.1627955734729767,-10.47439956665039,-59.67315673828125,-24.2540283203125,2
2017-12-04 17:02:40.628 -0800,137,C4D50155-580C-4885-BACB-A13DEF47355A,1512435758.441263,49.277167311615,-122.907428644096,343.2689,-1,-1,10,65,-9999,117272.050480875,-0.1370391845703125,-0.9766387939453125,-0.16717529296875,117272.024449875,-0.003518834748321697,-0.002053297200451093,-0.03942011045535288,117272.025425875,-1.06025900961754,-0.6821982668054194,1.359762794997643,0.01510716881603003,-0.03236543387174606,-0.03460488095879555,0.01357194781303406,-0.008009612560272217,0.004397690296173096,XArbitraryCorrectedZVertical,-0.3796156644821167,0.5240293741226196,0.552014172077179,-0.5258893370628357,-0.1320564597845078,-0.9778149127960205,-0.1625703275203705,-10.5573558807373,-59.79160308837891,-24.31732177734375,2
2017-12-04 17:02:40.655 -0800,138,C4D50155-580C-4885-BACB-A13DEF47355A,1512435758.441263,49.277167311615,-122.907428644096,343.2689,-1,-1,10,65,-9999,117272.080540875,-0.104156494140625,-0.968017578125,-0.16961669921875,117272.054509875,-0.07546546317735736,0.05003733477317178,-0.001274056265493908,117272.060521875,-1.063949942150954,-0.6772121895808931,1.359218112930557,-0.06420588493347168,0.03884149715304375,0.003451257012784481,0.003236711025238037,0.002786159515380859,-0.008461594581604004,XArbitraryCorrectedZVertical,-0.3798244297504425,0.5233662724494934,0.5520591139793396,-0.5263516902923584,-0.1315783709287643,-0.9777007102966309,-0.1636423021554947,-10.32525062561035,-59.84286499023438,-24.31683349609375,2
2017-12-04 17:02:40.685 -0800,139,C4D50155-580C-4885-BACB-A13DEF47355A,1512435758.441263,49.277167311615,-122.907428644096,343.2689,-1,-1,10,65,-9999,117272.110600875,-0.1087799072265625,-0.983001708984375,-0.19427490234375,117272.084569875,-0.01747779360197203,0.01918195038351373,-0.0289917042588206,117272.095555875,-1.069534528034566,-0.6712696886519566,1.358531828831328,0.01211062725633383,0.03448256477713585,-0.02705368772149086,0.02652865648269653,0.01187336444854736,-0.01329135894775391,XArbitraryCorrectedZVertical,-0.3797515034675598,0.5227958559989929,0.5524281859397888,-0.5265838503837585,-0.1310208439826965,-0.9775563478469849,-0.1649465709924698,-10.33933639526367,-59.71383285522461,-24.54086303710938,2
2017-12-04 17:02:40.716 -0800,140,C4D50155-580C-4885-BACB-A13DEF47355A,1512435758.441263,49.277167311615,-122.907428644096,343.2689,-1,-1,10,65,-9999,117272.140660875,-0.1423187255859375,-0.9794158935546875,-0.1835784912109375,117272.114628875,-0.05122297409047506,0.1507990998807558,-0.01334510022238706,117272.130650875,-1.073307585314356,-0.6633682298859932,1.358178029586529,-0.06573136150836945,0.1460078954696655,0.001554353162646294,-0.001819401979446411,-0.005336880683898926,-0.03405481576919556,XArbitraryCorrectedZVertical,-0.3808174729347229,0.5213965773582458,0.5519357919692993,-0.5277159214019775,-0.1299249678850174,-0.9774817824363708,-0.1662473231554031,-10.2916088104248,-59.90979385375977,-24.33816528320312,2
2017-12-04 17:02:40.746 -0800,141,C4D50155-580C-4885-BACB-A13DEF47355A,1512435758.441263,49.277167311615,-122.907428644096,343.2689,-1,-1,10,65,-9999,117272.170720875,-0.1314544677734375,-0.9826507568359375,-0.126800537109375,117272.144688875,-0.0594012754819994,0.05849100702141031,-0.00202027400293411,117272.165684875,-1.077691512582251,-0.65810247240954,1.357558962217875,0.03947482630610466,-0.1024308055639267,-0.04495871812105179,-0.002571195363998413,-0.002965211868286133,0.02621769905090332,XArbitraryCorrectedZVertical,-0.3809006214141846,0.5207793116569519,0.5521174669265747,-0.5280750393867493,-0.1294173449277878,-0.9773509502410889,-0.1674072444438934,-10.11606407165527,-59.77412796020508,-24.68051147460938,2
2017-12-04 17:02:40.776 -0800,142,C4D50155-580C-4885-BACB-A13DEF47355A,1512435758.441263,49.277167311615,-122.907428644096,343.2689,-1,-1,10,65,-9999,117272.200810875,-0.16668701171875,-1.008636474609375,-0.1339263916015625,117272.174748875,0.07875819554913133,-0.1528268307347421,-0.08718496987036005,117272.165684875,-1.077691512582251,-0.65810247240954,1.357558962217875,0.03947482630610466,-0.1024308055639267,-0.04495871812105179,-0.002571195363998413,-0.002965211868286133,0.02621769905090332,XArbitraryCorrectedZVertical,-0.3809006214141846,0.5207793116569519,0.5521174669265747,-0.5280750393867493,-0.1294173449277878,-0.9773509502410889,-0.1674072444438934,-10.11606407165527,-59.77412796020508,-24.68051147460938,2
2017-12-04 17:02:40.806 -0800,143,C4D50155-580C-4885-BACB-A13DEF47355A,1512435758.441263,49.277167311615,-122.907428644096,343.2689,-1,-1,10,65,-9999,117272.230870875,-0.1441802978515625,-0.9696502685546875,-0.172393798828125,117272.204808875,0.02232767626311533,-0.06793217940185022,-0.0146404617766016,117272.200810875,-1.079305876532222,-0.6616661988579288,1.361372366529005,0.06500499695539474,-0.1247793659567833,-0.04666884616017342,-0.03896555304527283,-0.03048563003540039,0.03007590770721436,XArbitraryCorrectedZVertical,-0.3808980882167816,0.5224131345748901,0.553051769733429,-0.5254788994789124,-0.1277214288711548,-0.9781508445739746,-0.1640023291110992,-10.19268035888672,-60.16575241088867,-24.59646606445312,2
2017-12-04 17:02:40.836 -0800,144,C4D50155-580C-4885-BACB-A13DEF47355A,1512435758.441263,49.277167311615,-122.907428644096,343.2689,-1,-1,10,65,-9999,117272.260930875,-0.1179962158203125,-0.980316162109375,-0.202972412109375,117272.234868875,-0.02898451372387739,0.0308066485417096,0.01761840850752821,117272.235844875,-1.076959843904321,-0.6654032756896715,1.361382540000468,-0.01354526448994875,0.01428702380508184,0.02559833601117134,-0.01585257053375244,0.008502721786499023,-0.008877158164978027,XArbitraryCorrectedZVertical,-0.3804815113544464,0.5229488611221313,0.5531462430953979,-0.5251484513282776,-0.1283277273178101,-0.9781529307365417,-0.1635166108608246,-10.15234565734863,-59.8546257019043,-24.545654296875,2
2017-12-04 17:02:40.868 -0800,145,C4D50155-580C-4885-BACB-A13DEF47355A,1512435758.441263,49.277167311615,-122.907428644096,343.2689,-1,-1,10,65,-9999,117272.290989875,-0.132598876953125,-0.987884521484375,-0.1646881103515625,117272.264927875,-0.08157422208578112,0.09355764804281066,-0.004472512734679072,117272.270939875,-1.079327407695005,-0.660775118046644,1.36008447298762,-0.06707660853862762,0.08660754561424255,-0.000740057323127985,0.005957663059234619,-0.008308529853820801,-0.04321753978729248,XArbitraryCorrectedZVertical,-0.380665123462677,0.5220524072647095,0.5529451966285706,-0.5261179804801941,-0.1283484101295471,-0.9778822660446167,-0.1651106923818588,-10.17157363891602,-59.87269592285156,-24.3905029296875,2
2017-12-04 17:02:40.903 -0800,146,C4D50155-580C-4885-BACB-A13DEF47355A,1512435758.441263,49.277167311615,-122.907428644096,343.2689,-1,-1,10,65,-9999,117272.321049875,-0.097991943359375,-0.9586181640625,-0.1528167724609375,117272.294987875,-0.03523868122781947,0.07007336091827393,0.02078810283694052,117272.305974875,-1.081727405245922,-0.6559704586932593,1.358698094610994,-0.0004832092672586441,0.03019647300243378,0.0163071695715189,0.002527356147766113,-0.003457248210906982,0.01491546630859375,XArbitraryCorrectedZVertical,-0.3808575868606567,0.5211014747619629,0.5527243614196777,-0.527152955532074,-0.1283818334341049,-0.977591335773468,-0.1668014973402023,-10.22706985473633,-59.55013656616211,-24.54339599609375,2
2017-12-04 17:02:40.927 -0800,147,C4D50155-580C-4885-BACB-A13DEF47355A,1512435758.441263,49.277167311615,-122.907428644096,343.2689,-1,-1,10,65,-9999,117272.351109875,-0.1107025146484375,-0.9803924560546875,-0.199005126953125,117272.325047875,0.03439765495557245,0.02327656055951056,-0.006752711260004917,117272.341069875,-1.07873877636589,-0.6582438049852273,1.359796793882678,0.03639160096645355,0.01425865758210421,-0.01920897886157036,0.02321431040763855,0.008003950119018555,-0.02762407064437866,XArbitraryCorrectedZVertical,-0.3814124464988708,0.5212437510490417,0.5523203015327454,-0.5270345211029053,-0.1281032264232635,-0.9778220653533936,-0.1656589955091476,-10.10711669921875,-59.73566055297852,-24.6087646484375,2
2017-12-04 17:02:41.002 -0800,148,C4D50155-580C-4885-BACB-A13DEF47355A,1512435758.441263,49.277167311615,-122.907428644096,343.2689,-1,-1,10,65,-9999,117272.381169875,-0.144775390625,-0.9904937744140625,-0.1703948974609375,117272.355107875,-0.04503964667152908,-0.0146806755090618,-0.04766259402914812,117272.376133875,-1.086696152605215,-0.6510230491306096,1.359923063532906,-0.05108604952692986,-0.0587252713739872,-0.0401451550424099,-0.002992719411849976,-0.01806211471557617,-0.022422194480896,XArbitraryCorrectedZVertical,-0.3813811540603638,0.5208719372749329,0.5530335903167725,-0.5266767144203186,-0.1268290579319,-0.9778485298156738,-0.1664816737174988,-9.892559051513672,-59.87839889526367,-24.66067504882812,2
2017-12-04 17:02:41.004 -0800,149,C4D50155-580C-4885-BACB-A13DEF47355A,1512435758.441263,49.277167311615,-122.907428644096,343.2689,-1,-1,10,65,-9999,117272.411229875,-0.1431121826171875,-0.969207763671875,-0.146453857421875,117272.385167875,-0.0181694165370656,-0.02647634860924076,-0.005717274228182108,117272.376133875,-1.086696152605215,-0.6510230491306096,1.359923063532906,-0.05108604952692986,-0.0587252713739872,-0.0401451550424099,-0.002992719411849976,-0.01806211471557617,-0.022422194480896,XArbitraryCorrectedZVertical,-0.3813811540603638,0.5208719372749329,0.5530335903167725,-0.5266767144203186,-0.1268290579319,-0.9778485298156738,-0.1664816737174988,-9.892559051513672,-59.87839889526367,-24.66067504882812,2
2017-12-04 17:02:41.017 -0800,150,C4D50155-580C-4885-BACB-A13DEF47355A,1512435758.441263,49.277167311615,-122.907428644096,343.2689,-1,-1,10,65,-9999,117272.441288875,-0.163482666015625,-0.997406005859375,-0.1844482421875,117272.415226875,0.04057911816175537,-0.04144943920599326,-0.01317572317705802,117272.411229875,-1.084720237364649,-0.6539122303319148,1.360345220885716,0.0579894445836544,-0.0208512619137764,0.01301110722124577,-0.01605334877967834,0.008728981018066406,0.0193336009979248,XArbitraryCorrectedZVertical,-0.3812521994113922,0.5212993621826172,0.5530441403388977,-0.5263361930847168,-0.1270588487386703,-0.9779368042945862,-0.165787473320961,-9.974481582641602,-59.72345352172852,-24.789306640625,2
2017-12-04 17:02:41.065 -0800,151,C4D50155-580C-4885-BACB-A13DEF47355A,1512435758.441263,49.277167311615,-122.907428644096,343.2689,-1,-1,10,65,-9999,117272.471348875,-0.1390380859375,-0.98016357421875,-0.1695098876953125,117272.445286875,-0.0621272871738045,0.03935939038249908,0.02340758808514246,117272.446263875,-1.08443179324862,-0.6553501569850626,1.360800987003726,-0.03797254711389542,0.003750757314264774,0.01661376655101776,-0.03645694255828857,-0.01937413215637207,-0.01919668912887573,XArbitraryCorrectedZVertical,-0.3810972273349762,0.5216695666313171,0.5532209277153015,-0.5258957743644714,-0.1270257234573364,-0.9780318737030029,-0.1652515381574631,-9.930187225341797,-59.71540069580078,-24.64596557617188,2
2017-12-04 17:02:41.076 -0800,152,C4D50155-580C-4885-BACB-A13DEF47355A,1512435758.441263,49.277167311615,-122.907428644096,343.2689,-1,-1,10,65,-9999,117272.501408875,-0.0920562744140625,-0.9669342041015625,-0.1680908203125,117272.475346875,-0.05021390235344404,0.1241925226942102,0.03765816307815646,117272.481358875,-1.082589438424527,-0.6529536279113267,1.358433672957155,-0.03464500978589058,0.1108815968036652,0.0392683744430542,0.0134722888469696,-0.001605510711669922,-0.005671560764312744,XArbitraryCorrectedZVertical,-0.381369411945343,0.5204426646232605,0.5523889064788818,-0.527785062789917,-0.1280352622270584,-0.9775356650352478,-0.1673936098814011,-10.05666351318359,-59.77462387084961,-24.82757568359375,2
2017-12-04 17:02:41.145 -0800,153,C4D50155-580C-4885-BACB-A13DEF47355A,1512435758.441263,49.277167311615,-122.907428644096,343.2689,-1,-1,10,65,-9999,117272.531468875,-0.11151123046875,-0.973114013671875,-0.1864776611328125,117272.505406875,0.05084214205459373,0.02221475823289596,-0.0298487094976081,117272.516423875,-1.080688598418561,-0.6530989717563938,1.359571840494106,0.06732842326164246,0.009935013949871063,-0.01971205323934555,0.02405190467834473,0.006797194480895996,-0.01218783855438232,XArbitraryCorrectedZVertical,-0.3822425007820129,0.5202349424362183,0.5518618226051331,-0.527910053730011,-0.1273844242095947,-0.9777749180793762,-0.1664925515651703,-9.977071762084961,-59.88108444213867,-24.83535766601562,2
2017-12-04 17:02:41.148 -0800,154,C4D50155-580C-4885-BACB-A13DEF47355A,1512435758.441263,49.277167311615,-122.907428644096,343.2689,-1,-1,10,65,-9999,117272.561528875,-0.140228271484375,-0.9939727783203125,-0.1290435791015625,117272.535496875,0.01980832587190037,-0.0827199139867332,-0.05407282277296886,117272.551518875,-1.081456039320833,-0.6546718740604112,1.361405090314841,0.02046814560890198,-0.1002454236149788,-0.0548759326338768,-0.0007658898830413818,-0.004233717918395996,0.009915471076965332,XArbitraryCorrectedZVertical,-0.3822823166847229,0.5209856033325195,0.5522805452346802,-0.5267013311386108,-0.1265534460544586,-0.978157639503479,-0.1648684591054916,-9.927871704101562,-59.99186706542969,-24.63787841796875,2
2017-12-04 17:02:41.167 -0800,155,C4D50155-580C-4885-BACB-A13DEF47355A,1512435758.441263,49.277167311615,-122.907428644096,343.2689,-1,-1,10,65,-9999,117272.591588875,-0.1297607421875,-0.989837646484375,-0.1151275634765625,117272.565556875,0.01276559636918582,-0.05305975629430271,-0.01265427623562051,117272.586552875,-1.080391279093271,-0.6580283058180538,1.362624475573787,0.05375565215945244,-0.06220895797014236,7.030833512544632e-05,-0.01267600059509277,-0.01742398738861084,0.05572712421417236,XArbitraryCorrectedZVertical,-0.3820810616016388,0.5217893123626709,0.5525853633880615,-0.5257315039634705,-0.1263773590326309,-0.9784103631973267,-0.1634999513626099,-9.843807220458984,-59.82984161376953,-24.49929809570312,2
2017-12-04 17:02:41.221 -0800,156,C4D50155-580C-4885-BACB-A13DEF47355A,1512435758.441263,49.277167311615,-122.907428644096,343.2689,-1,-1,10,65,-9999,117272.621647875,-0.1248321533203125,-0.9881591796875,-0.17474365234375,117272.595616875,0.04178553013556126,-0.06159172547858956,-0.02596422273161852,117272.586552875,-1.080391279093271,-0.6580283058180538,1.362624475573787,0.05375565215945244,-0.06220895797014236,7.030833512544632e-05,-0.01267600059509277,-0.01742398738861084,0.05572712421417236,XArbitraryCorrectedZVertical,-0.3820810616016388,0.5217893123626709,0.5525853633880615,-0.5257315039634705,-0.1263773590326309,-0.9784103631973267,-0.1634999513626099,-9.843807220458984,-59.82984161376953,-24.49929809570312,2
2017-12-04 17:02:41.227 -0800,157,C4D50155-580C-4885-BACB-A13DEF47355A,1512435758.441263,49.277167311615,-122.907428644096,343.2689,-1,-1,10,65,-9999,117272.651707875,-0.1247100830078125,-0.9862060546875,-0.1597442626953125,117272.625676875,-0.05148769230282894,-0.03163915269846837,-0.04994971677330817,117272.621647875,-1.080455641104301,-0.6602628967199542,1.364390835005865,0.004507364705204964,-0.07476362586021423,-0.04979265853762627,0.0008511245250701904,-0.009385287761688232,-0.01289045810699463,XArbitraryCorrectedZVertical,-0.3820959031581879,0.5225668549537659,0.5529481768608093,-0.524566113948822,-0.1256832629442215,-0.9787738919258118,-0.1618532091379166,-9.834194183349609,-59.8748893737793,-24.67068481445312,2
2017-12-04 17:02:41.257 -0800,158,C4D50155-580C-4885-BACB-A13DEF47355A,1512435758.441263,49.277167311615,-122.907428644096,343.2689,-1,-1,10,65,-9999,117272.681798875,-0.108306884765625,-0.97479248046875,-0.172119140625,117272.655736875,-0.06919824618407389,0.0871325055968855,0.0159475412396125,117272.656712875,-1.088336610046577,-0.6518036853413901,1.363194129329609,-0.06639688462018967,0.0780797153711319,0.01733091846108437,0.000311046838760376,-0.007678091526031494,0.004098773002624512,XArbitraryCorrectedZVertical,-0.3819389939308167,0.5217289328575134,0.5534557700157166,-0.5249793529510498,-0.1250211596488953,-0.9785279631614685,-0.1638430505990982,-9.781084060668945,-59.93977355957031,-24.47158813476562,2
2017-12-04 17:02:41.316 -0800,159,C4D50155-580C-4885-BACB-A13DEF47355A,1512435758.441263,49.277167311615,-122.907428644096,343.2689,-1,-1,10,65,-9999,117272.711857875,-0.1260223388671875,-0.9785003662109375,-0.186126708984375,117272.685795875,0.01640533863099711,-0.008488825974627572,-0.02311464036523374,117272.691807875,-1.087617379642454,-0.6511616699526492,1.363013700205661,0.03199383243918419,-0.02072688192129135,-0.02256420068442822,0.01682326197624207,0.004629015922546387,-0.01669138669967651,XArbitraryCorrectedZVertical,-0.3822380304336548,0.5214038491249084,0.5531527400016785,-0.5254040360450745,-0.1250233501195908,-0.9784907698631287,-0.1640642285346985,-9.828433990478516,-59.77404022216797,-24.351318359375,2
2017-12-04 17:02:41.320 -0800,160,C4D50155-580C-4885-BACB-A13DEF47355A,1512435758.441263,49.277167311615,-122.907428644096,343.2689,-1,-1,10,65,-9999,117272.741917875,-0.14849853515625,-0.984527587890625,-0.15399169921875,117272.715855875,-0.02916933710352889,-0.06245219282679416,-0.05386562884016069,117272.726841875,-1.093444563653602,-0.6474883209438883,1.364345975915316,-0.02554736100137234,-0.03756378591060638,-0.0311130452901125,-0.01282563805580139,-0.01345330476760864,-0.0109860897064209,XArbitraryCorrectedZVertical,-0.3822237253189087,0.5216929912567139,0.553914487361908,-0.5243239402770996,-0.1236337348818779,-0.9787647128105164,-0.1634828895330429,-9.852922439575195,-59.79379653930664,-24.4783935546875,2
2017-12-04 17:02:41.383 -0800,161,C4D50155-580C-4885-BACB-A13DEF47355A,1512435758.441263,49.277167311615,-122.907428644096,343.2689,-1,-1,10,65,-9999,117272.771977875,-0.13897705078125,-0.98126220703125,-0.159515380859375,117272.745915875,-0.04794089436306141,0.05738286569182834,0.01201458494178348,117272.761937875,-1.095849654202773,-0.6436135095065336,1.363383534874562,-0.01185321528464556,0.01645603030920029,-0.006270546466112137,-0.01228427886962891,-0.004144787788391113,-0.0007824301719665527,XArbitraryCorrectedZVertical,-0.3823172748088837,0.5210338830947876,0.5538532137870789,-0.5249754786491394,-0.1235647201538086,-0.9785669445991516,-0.1647143810987473,-9.751045227050781,-59.83694839477539,-24.50643920898438,2
2017-12-04 17:02:41.387 -0800,162,C4D50155-580C-4885-BACB-A13DEF47355A,1512435758.441263,49.277167311615,-122.907428644096,343.2689,-1,-1,10,65,-9999,117272.802037875,-0.131622314453125,-0.98028564453125,-0.1739959716796875,117272.775975875,0.03247698317740731,-0.04139670861640969,-0.03565919436394299,117272.797001875,-1.096041662077677,-0.6445263174604731,1.365044786171125,0.05455903336405754,-0.03988977894186974,-0.03495818749070168,-0.01611608266830444,0.0009413957595825195,-0.001705706119537354,XArbitraryCorrectedZVertical,-0.3826229572296143,0.5214865803718567,0.5539931654930115,-0.52415531873703,-0.1227389201521873,-0.9789077043533325,-0.1633028388023376,-9.607833862304688,-59.81522750854492,-24.68362426757812,2
2017-12-04 17:02:41.407 -0800,163,C4D50155-580C-4885-BACB-A13DEF47355A,1512435758.441263,49.277167311615,-122.907428644096,343.2689,-1,-1,10,65,-9999,117272.832097875,-0.123016357421875,-0.964447021484375,-0.1909332275390625,117272.806035875,-0.02187280834892979,-0.02854402687957828,-0.03556917951909831,117272.797001875,-1.096041662077677,-0.6445263174604731,1.365044786171125,0.05455903336405754,-0.03988977894186974,-0.03495818749070168,-0.01611608266830444,0.0009413957595825195,-0.001705706119537354,XArbitraryCorrectedZVertical,-0.3826229572296143,0.5214865803718567,0.5539931654930115,-0.52415531873703,-0.1227389201521873,-0.9789077043533325,-0.1633028388023376,-9.607833862304688,-59.81522750854492,-24.68362426757812,2
2017-12-04 17:02:41.463 -0800,164,C4D50155-580C-4885-BACB-A13DEF47355A,1512435758.441263,49.277167311615,-122.907428644096,343.2689,-1,-1,10,65,-9999,117272.8621445417,-0.125152587890625,-0.9724578857421875,-0.1884613037109375,117272.836094875,-0.08373910573590652,0.05644010666594029,-0.01311020941424207,117272.832097875,-1.102157441117285,-0.6391599517187,1.364736520836461,-0.07573428750038147,0.0197981595993042,-0.01276016794145107,-0.0009747147560119629,0.01439762115478516,-0.02673077583312988,XArbitraryCorrectedZVertical,-0.3824033141136169,0.5212163329124451,0.5545849204063416,-0.5239589214324951,-0.1220416724681854,-0.9788447022438049,-0.164202481508255,-9.584171295166016,-59.81683349609375,-24.52767944335938,2
