loggingTime(txt),loggingSample(N),identifierForVendor(txt),locationTimestamp_since1970(s),locationLatitude(WGS84),locationLongitude(WGS84),locationAltitude(m),locationSpeed(m/s),locationCourse(°),locationVerticalAccuracy(m),locationHorizontalAccuracy(m),locationFloor(Z),accelerometerTimestamp_sinceReboot(s),accelerometerAccelerationX(G),accelerometerAccelerationY(G),accelerometerAccelerationZ(G),gyroTimestamp_sinceReboot(s),gyroRotationX(rad/s),gyroRotationY(rad/s),gyroRotationZ(rad/s),motionTimestamp_sinceReboot(s),motionYaw(rad),motionRoll(rad),motionPitch(rad),motionRotationRateX(rad/s),motionRotationRateY(rad/s),motionRotationRateZ(rad/s),motionUserAccelerationX(G),motionUserAccelerationY(G),motionUserAccelerationZ(G),motionAttitudeReferenceFrame(txt),motionQuaternionX(R),motionQuaternionY(R),motionQuaternionZ(R),motionQuaternionW(R),motionGravityX(G),motionGravityY(G),motionGravityZ(G),motionMagneticFieldX(µT),motionMagneticFieldY(µT),motionMagneticFieldZ(µT),motionMagneticFieldCalibrationAccuracy(Z)
2017-12-04 17:16:52.246 -0800,1,BF2B89E4-20AD-4334-A98B-17808832B17C,1512436610.869942,49.27716275711904,-122.9074344817287,342.7374,-1,-1,10,65,-9999,58350.54518779167,-0.059326171875,-1.00921630859375,0.0372772216796875,58350.51757079167,-0.08409969774750325,-0.004590224454860575,-0.02638127375832493,58350.51882079167,1.879163036225423,-1.873182237781375,1.496391315933499,-0.1130650341510773,0.01892122626304626,0.001740582287311554,-0.0004523396492004395,0.01777154207229614,-0.02701854705810547,XArbitraryCorrectedZVertical,0.714521050453186,-0.02296850271522999,0.02719462662935257,0.6987075209617615,-0.07095880061388016,-0.9972332119941711,0.02213576808571815,-7.054109573364258,-59.72406005859375,-12.82736778259277,2
2017-12-04 17:16:52.261 -0800,2,BF2B89E4-20AD-4334-A98B-17808832B17C,1512436610.869942,49.27716275711904,-122.9074344817287,342.7374,-1,-1,10,65,-9999,58350.57792179167,-0.0777435302734375,-1.000244140625,0.028564453125,58350.55149579167,-0.01174533935557646,0.01095091840240583,0.005372661183125856,58350.55399579167,1.883298353928606,-1.877763567640722,1.496800093817026,-0.01084301434457302,0.008187383413314819,0.01523306965827942,0.009755298495292664,-0.008000791072845459,0.01408469676971436,XArbitraryCorrectedZVertical,0.7145922780036926,-0.02295451425015926,0.02686551213264465,0.6986479759216309,-0.07047002762556076,-0.9972635507583618,0.02233806625008583,-6.95904541015625,-59.71896362304688,-12.86451530456543,2
2017-12-04 17:16:52.292 -0800,3,BF2B89E4-20AD-4334-A98B-17808832B17C,1512436610.869942,49.27716275711904,-122.9074344817287,342.7374,-1,-1,10,65,-9999,58350.61184679167,-0.0581207275390625,-1.003585815429688,0.02508544921875,58350.58542179167,-0.01070830442709961,0.00985902235547334,-0.002131594136499422,58350.58922979167,1.885194665242323,-1.879042100668627,1.496272226870663,-0.008779357187449932,0.01258941274136305,0.007702060043811798,-0.006966449320316315,-0.0004105567932128906,0.002268075942993164,XArbitraryCorrectedZVertical,0.7146815657615662,-0.02290179394185543,0.02724928595125675,0.6985436081886292,-0.07094492763280869,-0.9972243905067444,0.02258846536278725,-7.146947860717773,-59.62722778320312,-12.76744842529297,2
2017-12-04 17:16:52.322 -0800,4,BF2B89E4-20AD-4334-A98B-17808832B17C,1512436610.869942,49.27716275711904,-122.9074344817287,342.7374,-1,-1,10,65,-9999,58350.64577179167,-0.068115234375,-0.9952850341796875,0.021331787109375,58350.61815479167,-0.001288703651489343,0.03953196322113621,0.00735511829858084,58350.62440479167,1.880067783650708,-1.872608665236518,1.495996864498569,0.003861130680888891,0.03787760064005852,0.01719154417514801,0.01347576081752777,-0.002964019775390625,0.00233769416809082,XArbitraryCorrectedZVertical,0.7145606875419617,-0.02257968485355377,0.02785037830471992,0.6986541152000427,-0.07135234773159027,-0.9972038269042969,0.02221363596618176,-7.14045524597168,-59.64003753662109,-13.02445793151855,2
2017-12-04 17:16:52.362 -0800,5,BF2B89E4-20AD-4334-A98B-17808832B17C,1512436610.869942,49.27716275711904,-122.9074344817287,342.7374,-1,-1,10,65,-9999,58350.67850579167,-0.078125,-0.9998321533203125,0.0233154296875,58350.65208079167,0.003314836608821628,-0.01976065528838795,-0.001010403317576063,58350.65963879167,1.884190126796035,-1.876708160255785,1.495468288993863,0.005233936011791229,-0.01593410223722458,0.009887437336146832,0.001067809760570526,0.00528186559677124,-0.001408696174621582,XArbitraryCorrectedZVertical,0.714713990688324,-0.02271606028079987,0.02800284326076508,0.6984866857528687,-0.07176177948713303,-0.9971641898155212,0.02266421541571617,-7.259899139404297,-59.54822540283203,-12.80790328979492,2
2017-12-04 17:16:52.393 -0800,6,BF2B89E4-20AD-4334-A98B-17808832B17C,1512436610.869942,49.27716275711904,-122.9074344817287,342.7374,-1,-1,10,65,-9999,58350.71243179167,-0.0650177001953125,-1.005203247070312,0.0277252197265625,58350.68600579167,-0.01255467401085155,-0.03078454430466195,0.00125195202844625,58350.69481479167,1.882591543189248,-1.875651043861366,1.495099782946126,-0.01591930910944939,-0.03026522882282734,0.01326301507651806,-0.009008124470710754,0.001668274402618408,-0.009439349174499512,XArbitraryCorrectedZVertical,0.7147157788276672,-0.02304285392165184,0.02794700488448143,0.6984764933586121,-0.07213811576366425,-0.9971364140510559,0.02269923500716686,-7.201080322265625,-59.43502807617188,-12.73317527770996,2
2017-12-04 17:16:52.422 -0800,7,BF2B89E4-20AD-4334-A98B-17808832B17C,1512436610.869942,49.27716275711904,-122.9074344817287,342.7374,-1,-1,10,65,-9999,58350.74635679167,-0.0771331787109375,-0.9976654052734375,0.0139923095703125,58350.71873979167,-0.00524509576691106,-0.00441126002960725,0.009689645310144301,58350.73004879167,1.878171122655348,-1.871583257788428,1.494767236926204,-0.00330986687913537,-0.008267573080956936,0.01204386260360479,-0.00564064085483551,-0.004491031169891357,-0.005627274513244629,XArbitraryCorrectedZVertical,0.7146385312080383,-0.0233133751899004,0.02796832472085953,0.6985456347465515,-0.07254539430141449,-0.9971112012863159,0.02250348776578903,-7.31096076965332,-59.40396881103516,-12.98652839660645,2
2017-12-04 17:16:52.476 -0800,8,BF2B89E4-20AD-4334-A98B-17808832B17C,1512436610.869942,49.27716275711904,-122.9074344817287,342.7374,-1,-1,10,65,-9999,58350.77909079167,-0.0701904296875,-0.9996490478515625,0.0336761474609375,58350.75266479167,-0.004148139713907421,-0.02416712162803306,-0.01167716243167044,58350.76522379167,1.877748833216721,-1.871785932537362,1.4945901550163,-8.407887071371078e-05,-0.02362927608191967,-0.001847938634455204,-0.003476187586784363,-0.00226140022277832,0.002590656280517578,XArbitraryCorrectedZVertical,0.7146528959274292,-0.02359528094530106,0.02780862338840961,0.6985279321670532,-0.07271095365285873,-0.9970977306365967,0.02257099747657776,-7.287639617919922,-59.36690521240234,-12.81133270263672,2
2017-12-04 17:16:52.493 -0800,9,BF2B89E4-20AD-4334-A98B-17808832B17C,1512436610.869942,49.27716275711904,-122.9074344817287,342.7374,-1,-1,10,65,-9999,58350.81301579167,-0.0728302001953125,-0.998870849609375,0.018951416015625,58350.78659079167,-0.007443801562880479,-0.002213619498073863,-0.003171824858284373,58350.80045779167,1.87667023945601,-1.870873709345705,1.494484661295366,-0.0002380292862653732,0.004922354593873024,0.005544472951442003,-0.00371059775352478,-0.0006673336029052734,0.00175774097442627,XArbitraryCorrectedZVertical,0.7146367430686951,-0.02369605749845505,0.02779182977974415,0.6985414624214172,-0.07282748073339462,-0.997089684009552,0.02253435552120209,-7.136972427368164,-59.51634979248047,-12.85480117797852,2
2017-12-04 17:16:52.523 -0800,10,BF2B89E4-20AD-4334-A98B-17808832B17C,1512436610.869942,49.27716275711904,-122.9074344817287,342.7374,-1,-1,10,65,-9999,58350.84694179167,-0.07000732421875,-0.993682861328125,0.0260162353515625,58350.81932479167,0.004184092388623491,0.001115864496743201,-0.01395949148586834,58350.83563279167,1.876940988343427,-1.87100840610947,1.494454843918994,0.008293970488011837,-0.008228689432144165,-0.008379479870200157,-0.006095640361309052,-0.001508831977844238,0.001220107078552246,XArbitraryCorrectedZVertical,0.7146446108818054,-0.02365658618509769,0.0278484895825386,0.6985325217247009,-0.07285333424806595,-0.9970874190330505,0.02255310863256454,-7.17131233215332,-59.33476257324219,-13.03060913085938,2
2017-12-04 17:16:52.563 -0800,11,BF2B89E4-20AD-4334-A98B-17808832B17C,1512436610.869942,49.27716275711904,-122.9074344817287,342.7374,-1,-1,10,65,-9999,58350.87967579167,-0.0687255859375,-0.998199462890625,0.0228729248046875,58350.85324979167,0.01900698069989552,0.008842760083499103,-0.01727592599134402,58350.87086679167,1.887688468315194,-1.881425729502516,1.494441877623494,0.02828995510935783,0.02696391753852367,-0.003253516741096973,0.009696930646896362,-0.002623677253723145,0.0004593133926391602,XArbitraryCorrectedZVertical,0.7149173021316528,-0.02345670200884342,0.02788188494741917,0.6982586979866028,-0.07262417674064636,-0.9970864057540894,0.02331393212080002,-7.415790557861328,-59.45886993408203,-12.94941520690918,2
2017-12-04 17:16:52.593 -0800,12,BF2B89E4-20AD-4334-A98B-17808832B17C,1512436610.869942,49.27716275711904,-122.9074344817287,342.7374,-1,-1,10,65,-9999,58350.91360079167,-0.07952880859375,-0.99432373046875,0.006378173828125,58350.88717579167,0.01378585338279518,-0.004351072588971459,-0.01505564859054496,58350.90604279167,1.89412748611852,-1.887988176739887,1.494403789144108,-0.005264459643512964,-0.04670503363013268,-0.004948923364281654,-0.009035736322402954,-0.003755688667297363,-0.009932160377502441,XArbitraryCorrectedZVertical,0.7150880098342896,-0.02345893532037735,0.02779690362513065,0.6980872750282288,-0.07250723242759705,-0.9970834851264954,0.02380236610770226,-7.219606399536133,-59.49396514892578,-12.88735198974609,2
2017-12-04 17:16:52.638 -0800,13,BF2B89E4-20AD-4334-A98B-17808832B17C,1512436610.869942,49.27716275711904,-122.9074344817287,342.7374,-1,-1,10,65,-9999,58350.94752579167,-0.0736083984375,-0.995086669921875,0.01531982421875,58350.91990979167,-0.007316768778883699,-0.02527499664150602,-0.008441954339442177,58350.90604279167,1.89412748611852,-1.887988176739887,1.494403789144108,-0.005264459643512964,-0.04670503363013268,-0.004948923364281654,-0.009035736322402954,-0.003755688667297363,-0.009932160377502441,XArbitraryCorrectedZVertical,0.7150880098342896,-0.02345893532037735,0.02779690362513065,0.6980872750282288,-0.07250723242759705,-0.9970834851264954,0.02380236610770226,-7.219606399536133,-59.49396514892578,-12.88735198974609,2
2017-12-04 17:16:52.664 -0800,14,BF2B89E4-20AD-4334-A98B-17808832B17C,1512436610.869942,49.27716275711904,-122.9074344817287,342.7374,-1,-1,10,65,-9999,58350.98025979167,-0.06915283203125,-1.00335693359375,0.0296173095703125,58350.95383479167,-0.001089765518060424,0.009877664483103895,0.008542089196429157,58350.97645179167,1.893605739367131,-1.887849625029895,1.493778791584602,0.008270087651908398,0.0115272281691432,0.01619585603475571,-0.001360684633255005,-0.0005992650985717773,0.001037955284118652,XArbitraryCorrectedZVertical,0.7151408791542053,-0.02380659803748131,0.02787375636398792,0.6980182528495789,-0.073102205991745,-0.9970356225967407,0.02398646250367165,-7.311517715454102,-59.38773345947266,-12.91657257080078,2
2017-12-04 17:16:52.694 -0800,15,BF2B89E4-20AD-4334-A98B-17808832B17C,1512436610.869942,49.27716275711904,-122.9074344817287,342.7374,-1,-1,10,65,-9999,58351.01418579167,-0.076171875,-0.997039794921875,0.0242767333984375,58350.98775979167,0.001084971828098282,-0.00768215448044257,-0.006406766634403624,58350.97645179167,1.893605739367131,-1.887849625029895,1.493778791584602,0.008270087651908398,0.0115272281691432,0.01619585603475571,-0.001360684633255005,-0.0005992650985717773,0.001037955284118652,XArbitraryCorrectedZVertical,0.7151408791542053,-0.02380659803748131,0.02787375636398792,0.6980182528495789,-0.073102205991745,-0.9970356225967407,0.02398646250367165,-7.311517715454102,-59.38773345947266,-12.91657257080078,2
2017-12-04 17:16:52.724 -0800,16,BF2B89E4-20AD-4334-A98B-17808832B17C,1512436610.869942,49.27716275711904,-122.9074344817287,342.7374,-1,-1,10,65,-9999,58351.048110875,-0.0811767578125,-0.9954833984375,0.0243377685546875,58351.02049379167,-0.001003479098741857,-0.01427667397169678,-0.007443002614553455,58351.01168579167,1.892762281768029,-1.887202843643906,1.49354133602259,0.00516608776524663,-0.01043858006596565,0.002363445237278938,-0.004564359784126282,0.001076161861419678,-0.00408625602722168,XArbitraryCorrectedZVertical,0.7151453495025635,-0.02396363578736782,0.02789181470870972,0.6980078220367432,-0.07334701716899872,-0.9970173239707947,0.02401425316929817,-7.163204193115234,-59.74893951416016,-13.15912818908691,2
2017-12-04 17:16:52.764 -0800,17,BF2B89E4-20AD-4334-A98B-17808832B17C,1512436610.869942,49.27716275711904,-122.9074344817287,342.7374,-1,-1,10,65,-9999,58351.080844875,-0.0710296630859375,-0.9985809326171875,0.0126190185546875,58351.05441987501,-0.01388652087200017,0.004362257865549792,-0.007454720523349803,58351.046860875,1.892060050556564,-1.886632480767916,1.493620248865352,-0.003474877215921879,0.006016677245497704,-0.003020499832928181,0.0003348588943481445,0.002104580402374268,0.002983450889587402,XArbitraryCorrectedZVertical,0.7151214480400085,-0.02398961968719959,0.02782463096082211,0.6980341672897339,-0.07328712940216064,-0.9970234036445618,0.02394837513566017,-7.299415588378906,-59.56653594970703,-12.8227481842041,2
2017-12-04 17:16:52.799 -0800,18,BF2B89E4-20AD-4334-A98B-17808832B17C,1512436610.869942,49.27716275711904,-122.9074344817287,342.7374,-1,-1,10,65,-9999,58351.11477087501,-0.06988525390625,-0.9988250732421875,0.02471923828125,58351.088344875,0.0009843043388932863,0.001108940277908995,-0.01608815614516868,58351.082094875,1.889059058287584,-1.883487233604856,1.493728501764609,-0.0002804365940392017,0.001634060405194759,-0.008378502912819386,0.002228006720542908,-0.001549184322357178,-0.01106500625610352,XArbitraryCorrectedZVertical,0.7150310873985291,-0.02392782270908356,0.02786476723849773,0.6981271505355835,-0.073257677257061,-0.9970317482948303,0.02368399314582348,-7.200159072875977,-59.4176025390625,-12.68447685241699,2
2017-12-04 17:16:52.825 -0800,19,BF2B89E4-20AD-4334-A98B-17808832B17C,1512436610.869942,49.27716275711904,-122.9074344817287,342.7374,-1,-1,10,65,-9999,58351.148695875,-0.0669708251953125,-0.9988861083984375,0.0287322998046875,58351.121078875,-0.01053573158846247,-0.02527979033146816,-0.01485830835377009,58351.117270875,1.893501725351912,-1.888031762489351,1.493837840284471,0.008304018527269363,-0.009327924810349941,-0.007304195314645767,0.004576817154884338,-0.002166390419006348,-0.002146482467651367,XArbitraryCorrectedZVertical,0.7151365280151367,-0.02388794347643852,0.02775291912257671,0.6980248093605042,-0.07304300367832184,-0.9970401525497437,0.02398177422583103,-7.290843963623047,-59.51682281494141,-12.79648971557617,2
2017-12-04 17:16:52.879 -0800,20,BF2B89E4-20AD-4334-A98B-17808832B17C,1512436610.869942,49.27716275711904,-122.9074344817287,342.7374,-1,-1,10,65,-9999,58351.181429875,-0.07476806640625,-0.9976654052734375,0.0130767822265625,58351.15500487501,-0.004469316941370978,0.03074299899165671,-0.003314836608821628,58351.152504875,1.890841502772421,-1.885701562170118,1.493807734502713,-0.003556954674422741,0.02248559333384037,0.00441546319052577,0.007988244295120239,-0.002870619297027588,0.005780935287475586,XArbitraryCorrectedZVertical,0.7150753736495972,-0.02403618581593037,0.02766797319054604,0.6980857849121094,-0.07312801480293274,-0.9970378279685974,0.02382105588912964,-7.331094741821289,-59.49560546875,-12.9162654876709,2
2017-12-04 17:16:52.895 -0800,21,BF2B89E4-20AD-4334-A98B-17808832B17C,1512436610.869942,49.27716275711904,-122.9074344817287,342.7374,-1,-1,10,65,-9999,58351.21535587501,-0.07421875,-0.9994354248046875,0.0333099365234375,58351.188929875,-0.005067729238311783,-0.04394056008965339,-0.008379636369934324,58351.187679875,1.888563216646341,-1.883122932013497,1.49362396900128,-0.001085254363715649,-0.02693213149905205,0.007816050201654434,-0.001405753195285797,-0.0006417036056518555,-0.01061153411865234,XArbitraryCorrectedZVertical,0.715029776096344,-0.02401192858815193,0.02785591781139374,0.6981257796287537,-0.0733623132109642,-0.9970237016677856,0.0236883070319891,-7.326902389526367,-59.34613800048828,-12.8367977142334,2
2017-12-04 17:16:52.925 -0800,22,BF2B89E4-20AD-4334-A98B-17808832B17C,1512436610.869942,49.27716275711904,-122.9074344817287,342.7374,-1,-1,10,65,-9999,58351.249280875,-0.0798187255859375,-0.9940185546875,0.0189666748046875,58351.221663875,-0.005290635821551415,-0.01208862082008768,-0.01171897406078468,58351.222913875,1.887148015862264,-1.882657027121361,1.493577420621542,-0.00333856325596571,-0.01156073063611984,0.003475761506706476,-0.006890833377838135,0.003642439842224121,0.00228726863861084,XArbitraryCorrectedZVertical,0.7150105237960815,-0.02437041141092777,0.02754364535212517,0.6981453895568848,-0.07341617345809937,-0.9970201253890991,0.02366793155670166,-7.456426620483398,-59.46131896972656,-12.85751914978027,2
2017-12-04 17:16:52.965 -0800,23,BF2B89E4-20AD-4334-A98B-17808832B17C,1512436610.869942,49.27716275711904,-122.9074344817287,342.7374,-1,-1,10,65,-9999,58351.282014875,-0.0798797607421875,-1.002334594726562,0.0275115966796875,58351.25558987501,0.007395864663259052,-0.002171008920632595,-0.01396188833084941,58351.258089875,1.889730311681414,-1.885644487237081,1.493746819286798,0.00934726744890213,-0.007131488528102636,-0.006250703707337379,-0.004619568586349487,0.001626074314117432,-0.006073832511901855,XArbitraryCorrectedZVertical,0.7150667905807495,-0.02443325333297253,0.02732021734118462,0.698094367980957,-0.07318499684333801,-0.9970331788063049,0.02383499778807163,-7.31280517578125,-59.53636932373047,-12.85840606689453,2
2017-12-04 17:16:52.996 -0800,24,BF2B89E4-20AD-4334-A98B-17808832B17C,1512436610.869942,49.27716275711904,-122.9074344817287,342.7374,-1,-1,10,65,-9999,58351.31594087501,-0.074981689453125,-0.9990234375,0.0174713134765625,58351.289514875,-0.002414421844265837,0.03514626953799372,-0.01298930190075248,58351.293323875,1.892936233811716,-1.887643673131059,1.49368444987777,0.0005550615023821592,0.04007252305746078,-0.002103467471897602,-0.00931888073682785,-0.01134872436523438,-0.0004118680953979492,XArbitraryCorrectedZVertical,0.715139627456665,-0.02400721237063408,0.02774683199822903,0.698017954826355,-0.07320065051317215,-0.9970283508300781,0.02400206588208675,-7.301975250244141,-59.5106201171875,-13.03807258605957,2
2017-12-04 17:16:53.041 -0800,25,BF2B89E4-20AD-4334-A98B-17808832B17C,1512436610.869942,49.27716275711904,-122.9074344817287,342.7374,-1,-1,10,65,-9999,58351.349865875,-0.0573272705078125,-1.001754760742188,0.0211944580078125,58351.322248875,-0.006430735084214337,-0.009887784495246195,-0.0256574265740414,58351.328498875,1.893549577538528,-1.888149049548299,1.494027280177664,-0.002379511017352343,-0.007156155072152615,-0.01369659136980772,0.006869494915008545,-0.0008090734481811523,-0.004157066345214844,XArbitraryCorrectedZVertical,0.7151205539703369,-0.02384929358959198,0.02766522578895092,0.6980461478233337,-0.07286375761032104,-0.9970546960830688,0.02393239177763462,-7.450887680053711,-59.46697998046875,-12.92319679260254,2
2017-12-04 17:16:53.066 -0800,26,BF2B89E4-20AD-4334-A98B-17808832B17C,1512436610.869942,49.27716275711904,-122.9074344817287,342.7374,-1,-1,10,65,-9999,58351.382599875,-0.0717315673828125,-1.00518798828125,0.016876220703125,58351.35617487501,-0.0001342233189399936,0.02196468740653753,0.002058623522631251,58351.363732875,1.892885356106325,-1.886951980277674,1.493992889978906,0.002874894067645073,0.02139873057603836,0.01403717510402203,-0.005671888589859009,-0.00441277027130127,0.001214027404785156,XArbitraryCorrectedZVertical,0.7150995135307312,-0.02368093468248844,0.02787336707115173,0.6980652213096619,-0.07292613387107849,-0.9970520734786987,0.02385620214045048,-7.429203033447266,-59.44587707519531,-12.77305221557617,2
2017-12-04 17:16:53.120 -0800,27,BF2B89E4-20AD-4334-A98B-17808832B17C,1512436610.869942,49.27716275711904,-122.9074344817287,342.7374,-1,-1,10,65,-9999,58351.416525875,-0.0764923095703125,-0.9944000244140625,0.0114898681640625,58351.390099875,-0.01259302353054868,-0.03297526061736113,-0.01053067158239132,58351.398908875,1.889526137674538,-1.883838493862054,1.493865794591826,-0.006394261959940195,-0.03792329877614975,-0.004982043989002705,-0.001053482294082642,-0.003156065940856934,-0.008256316184997559,XArbitraryCorrectedZVertical,0.7150284051895142,-0.02383746579289436,0.0278562568128109,0.6981333494186401,-0.07311949133872986,-0.9970422983169556,0.02366768941283226,-7.299549102783203,-59.58412933349609,-12.70606231689453,2
2017-12-04 17:16:53.126 -0800,28,BF2B89E4-20AD-4334-A98B-17808832B17C,1512436610.869942,49.27716275711904,-122.9074344817287,342.7374,-1,-1,10,65,-9999,58351.450450875,-0.081695556640625,-1.001144409179688,0.023345947265625,58351.422833875,-0.00812850027913985,-0.08786247805167621,-0.04356745122093328,58351.434142875,1.890652001493877,-1.887703203105608,1.494929472309746,-0.009444229304790497,-0.07855277508497238,-0.03374944999814034,0.002500645816326141,-0.006187677383422852,-0.003966331481933594,XArbitraryCorrectedZVertical,0.7149916887283325,-0.02442697994410992,0.02651059441268444,0.6982029676437378,-0.07201968878507614,-0.9971234798431396,0.02361958473920822,-7.348628997802734,-59.28803253173828,-12.77485847473145,2
2017-12-04 17:16:53.167 -0800,29,BF2B89E4-20AD-4334-A98B-17808832B17C,1512436610.869942,49.27716275711904,-122.9074344817287,342.7374,-1,-1,10,65,-9999,58351.483184875,-0.06829833984375,-1.001190185546875,0.002288818359375,58351.456759875,-0.02190955997197289,-0.07912198335403615,-0.02102539049006658,58351.469317875,1.885946335247342,-1.885340479493458,1.495713848634962,-0.01993202231824398,-0.08847304433584213,-0.01543782185763121,-0.01475802809000015,-0.002191722393035889,-0.007735133171081543,XArbitraryCorrectedZVertical,0.7148270606994629,-0.02502093277871609,0.02544903568923473,0.698390007019043,-0.07133205980062485,-0.9971826076507568,0.02320754714310169,-7.31846809387207,-59.45311737060547,-12.88992691040039,2
2017-12-04 17:16:53.200 -0800,30,BF2B89E4-20AD-4334-A98B-17808832B17C,1512436610.869942,49.27716275711904,-122.9074344817287,342.7374,-1,-1,10,65,-9999,58351.51710987501,-0.111572265625,-1.00445556640625,0.06781005859375,58351.490684875,-0.02274525992203975,-0.1065871636760233,-0.01019458065282332,58351.504551875,1.876788474562763,-1.879588715100959,1.496181534426852,-0.02726422064006329,-0.08082357794046402,0.0220823772251606,0.01996536552906036,0.0003303885459899902,-0.005611419677734375,XArbitraryCorrectedZVertical,0.7145943641662598,-0.02612784132361412,0.02414914965629578,0.6986337900161743,-0.07102128118276596,-0.99721759557724,0.02265553921461105,-7.351428985595703,-59.33306884765625,-12.92163276672363,2
2017-12-04 17:16:53.227 -0800,31,BF2B89E4-20AD-4334-A98B-17808832B17C,1512436610.869942,49.27716275711904,-122.9074344817287,342.7374,-1,-1,10,65,-9999,58351.551035875,-0.09356689453125,-1.001708984375,0.00933837890625,58351.523418875,0.03033367113211153,-0.02742470027341798,0.08464671103540553,58351.539726875,1.873101957319133,-1.876697243538311,1.493378701156605,0.06846295297145844,-0.0246113333851099,0.1060957312583923,-0.009765103459358215,-0.00821375846862793,-0.02281701564788818,XArbitraryCorrectedZVertical,0.7147695422172546,-0.02737772651016712,0.02483738400042057,0.6983822584152222,-0.07374624907970428,-0.9970047473907471,0.02329007722437382,-7.337200164794922,-59.39686584472656,-12.66373634338379,2
2017-12-04 17:16:53.282 -0800,32,BF2B89E4-20AD-4334-A98B-17808832B17C,1512436610.869942,49.27716275711904,-122.9074344817287,342.7374,-1,-1,10,65,-9999,58351.583769875,-0.073577880859375,-1.018142700195312,0.032196044921875,58351.55734387501,0.0008580705032235305,-0.1186241191709635,0.01868287399523288,58351.574960875,1.869752551985056,-1.876733922635989,1.491679552687999,-0.0416618175804615,-0.1511526852846146,0.02778821066021919,-0.02099898457527161,-0.009048521518707275,0.002732157707214355,XArbitraryCorrectedZVertical,0.7148783802986145,-0.02916032634675503,0.02422763034701347,0.6982200741767883,-0.07536026835441589,-0.9968718886375427,0.02380284667015076,-7.780790328979492,-58.97612762451172,-12.67536544799805,2
2017-12-04 17:16:53.297 -0800,33,BF2B89E4-20AD-4334-A98B-17808832B17C,1512436610.869942,49.27716275711904,-122.9074344817287,342.7374,-1,-1,10,65,-9999,58351.61769487501,-0.0705413818359375,-1.039505004882812,0.002716064453125,58351.591269875,-0.06013204688511713,-0.01886263736881323,0.08075503373447274,58351.610136875,1.838937368088898,-1.847633671624954,1.489137680474342,-0.03807051852345467,0.0157480277121067,0.1246626749634743,0.03693784028291702,-0.05322843790054321,0.009568095207214355,XArbitraryCorrectedZVertical,0.7142781615257263,-0.03086794726550579,0.02472388558089733,0.6987432837486267,-0.07845700532197952,-0.9966678023338318,0.02229224517941475,-7.844879150390625,-59.3858642578125,-12.81808090209961,2
2017-12-04 17:16:53.328 -0800,34,BF2B89E4-20AD-4334-A98B-17808832B17C,1512436610.869942,49.27716275711904,-122.9074344817287,342.7374,-1,-1,10,65,-9999,58351.651620875,-0.0703125,-1.005889892578125,0.0345306396484375,58351.624003875,-0.002418416585900956,-0.06374808701322672,0.07958457443538292,58351.610136875,1.838937368088898,-1.847633671624954,1.489137680474342,-0.03807051852345467,0.0157480277121067,0.1246626749634743,0.03693784028291702,-0.05322843790054321,0.009568095207214355,XArbitraryCorrectedZVertical,0.7142781615257263,-0.03086794726550579,0.02472388558089733,0.6987432837486267,-0.07845700532197952,-0.9966678023338318,0.02229224517941475,-7.844879150390625,-59.3858642578125,-12.81808090209961,2
2017-12-04 17:16:53.367 -0800,35,BF2B89E4-20AD-4334-A98B-17808832B17C,1512436610.869942,49.27716275711904,-122.9074344817287,342.7374,-1,-1,10,65,-9999,58351.684354875,-0.099853515625,-1.0091552734375,0.0192108154296875,58351.657928875,0.001144892952625065,0.03291826897003343,0.06632629326453243,58351.680545875,1.824651676011412,-1.833853728895557,1.48355792400868,0.0410335585474968,0.06760160624980927,0.05440731719136238,-0.01990882307291031,-0.004047036170959473,-0.009745955467224121,XArbitraryCorrectedZVertical,0.7143070697784424,-0.03305809199810028,0.02655747905373573,0.6985462307929993,-0.08412560075521469,-0.9961971640586853,0.02265485562384129,-8.014120101928711,-59.19322967529297,-12.41327857971191,2
2017-12-04 17:16:53.398 -0800,36,BF2B89E4-20AD-4334-A98B-17808832B17C,1512436610.869942,49.27716275711904,-122.9074344817287,342.7374,-1,-1,10,65,-9999,58351.718279875,-0.089508056640625,-1.050674438476562,0.029144287109375,58351.691854875,0.05700416418481907,0.1351815243002041,0.1031791164290489,58351.680545875,1.824651676011412,-1.833853728895557,1.48355792400868,0.0410335585474968,0.06760160624980927,0.05440731719136238,-0.01990882307291031,-0.004047036170959473,-0.009745955467224121,XArbitraryCorrectedZVertical,0.7143070697784424,-0.03305809199810028,0.02655747905373573,0.6985462307929993,-0.08412560075521469,-0.9961971640586853,0.02265485562384129,-8.014120101928711,-59.19322967529297,-12.41327857971191,2
2017-12-04 17:16:53.431 -0800,37,BF2B89E4-20AD-4334-A98B-17808832B17C,1512436610.869942,49.27716275711904,-122.9074344817287,342.7374,-1,-1,10,65,-9999,58351.752205875,-0.1153106689453125,-1.035568237304688,-0.000457763671875,58351.724588875,0.1596051083412118,0.2287873755587452,0.1162610963357362,58351.715779875,1.838547247488688,-1.841940432050849,1.479385834099751,0.09876611828804016,0.24233278632164,0.1402774751186371,-0.001120194792747498,-0.05324733257293701,0.01269185543060303,XArbitraryCorrectedZVertical,0.7149672508239746,-0.0323389396071434,0.02994210459291935,0.6977673172950745,-0.087945356965065,-0.9958249926567078,0.02444795332849026,-8.264001846313477,-59.32669067382812,-12.62481117248535,2
2017-12-04 17:16:53.468 -0800,38,BF2B89E4-20AD-4334-A98B-17808832B17C,1512436610.869942,49.27716275711904,-122.9074344817287,342.7374,-1,-1,10,65,-9999,58351.784939875,-0.109039306640625,-1.019866943359375,0.0025482177734375,58351.758513875,0.1897805877045726,0.1091912025899028,0.0308300843593023,58351.750955875,1.890425780847484,-1.886642860645305,1.474097987975555,0.204412966966629,0.132806807756424,0.06195281445980072,-0.02462270110845566,-0.04269653558731079,-0.03148496150970459,XArbitraryCorrectedZVertical,0.7169559597969055,-0.03112799301743507,0.03379979357123375,0.6956024169921875,-0.09177134186029434,-0.9953283667564392,0.02998960018157959,-8.440196990966797,-59.38919067382812,-12.45881271362305,2
2017-12-04 17:16:53.522 -0800,39,BF2B89E4-20AD-4334-A98B-17808832B17C,1512436610.869942,49.27716275711904,-122.9074344817287,342.7374,-1,-1,10,65,-9999,58351.818864875,-0.116943359375,-1.003921508789062,0.021392822265625,58351.792439875,0.129799542053263,0.07823941176878389,0.1277108248103138,58351.78618987501,1.941945001841755,-1.93465816890477,1.470005960932995,0.1476935148239136,0.05686020851135254,0.1075438633561134,-0.01500653475522995,-0.02494198083877563,-0.03326117992401123,XArbitraryCorrectedZVertical,0.7190021872520447,-0.03066845051944256,0.03581446781754494,0.6934065818786621,-0.09403277188539505,-0.9949249625205994,0.03580939769744873,-8.515192031860352,-59.22239685058594,-12.09634590148926,2
2017-12-04 17:16:53.529 -0800,40,BF2B89E4-20AD-4334-A98B-17808832B17C,1512436610.869942,49.27716275711904,-122.9074344817287,342.7374,-1,-1,10,65,-9999,58351.852790875,-0.0863494873046875,-1.005157470703125,0.01287841796875,58351.825173875,0.08522541594027976,0.0704352845104157,0.1365285511795662,58351.821364875,1.959456267052635,-1.948939959344197,1.463608090884218,0.09560615569353104,0.08965069055557251,0.1612579226493835,-0.01802164316177368,-0.004106462001800537,-0.01601457595825195,XArbitraryCorrectedZVertical,0.7202513217926025,-0.03141593933105469,0.03884138166904449,0.6919121742248535,-0.09942525625228882,-0.994260847568512,0.03949785605072975,-8.72990608215332,-59.16729736328125,-11.953125,2
2017-12-04 17:16:53.569 -0800,41,BF2B89E4-20AD-4334-A98B-17808832B17C,1512436610.869942,49.27716275711904,-122.9074344817287,342.7374,-1,-1,10,65,-9999,58351.885524875,-0.1230316162109375,-1.035369873046875,0.0428009033203125,58351.859098875,0.05473834672937965,0.1417765764236763,0.08172522331958861,58351.85659887501,1.968620513445585,-1.955124932289773,1.458543429576979,0.07923614978790283,0.1094114631414413,0.09694088995456696,0.01816548407077789,-0.01139014959335327,-0.02622091770172119,XArbitraryCorrectedZVertical,0.7210972309112549,-0.03190711140632629,0.04143482074141502,0.6908571720123291,-0.1038435846567154,-0.9937062859535217,0.04199856147170067,-8.965017318725586,-58.90962982177734,-11.82907295227051,2
2017-12-04 17:16:53.599 -0800,42,BF2B89E4-20AD-4334-A98B-17808832B17C,1512436610.869942,49.27716275711904,-122.9074344817287,342.7374,-1,-1,10,65,-9999,58351.919449875,-0.127227783203125,-1.060867309570312,0.046234130859375,58351.893024875,0.01306919673345485,0.2229087137685043,0.1566418089962806,58351.891774875,1.963428162440765,-1.943368593996622,1.454652843888583,0.01173651218414307,0.2168561816215515,0.1397224217653275,-0.01509985327720642,-0.04210692644119263,0.0006184577941894531,XArbitraryCorrectedZVertical,0.7212008833885193,-0.03099226765334606,0.04515237361192703,0.6905577182769775,-0.1079317629337311,-0.9932629466056824,0.04218246787786484,-9.070392608642578,-59.22563934326172,-11.9815845489502,2
2017-12-04 17:16:53.629 -0800,43,BF2B89E4-20AD-4334-A98B-17808832B17C,1512436610.869942,49.27716275711904,-122.9074344817287,342.7374,-1,-1,10,65,-9999,58351.953375875,-0.1398773193359375,-0.9736328125,0.056884765625,58351.925758875,0.2121351618946977,0.394712431482824,0.2150534538172066,58351.92700887501,1.961661445402018,-1.931143395824317,1.446835213323457,0.1844199895858765,0.3797897398471832,0.2315225899219513,-0.008656695485115051,-0.05517393350601196,-0.007952094078063965,XArbitraryCorrectedZVertical,0.7217338085174561,-0.02997665479779243,0.05151389911770821,0.689599871635437,-0.1157024428248405,-0.9923266768455505,0.04359658062458038,-9.416217803955078,-59.07091522216797,-11.82429122924805,2
2017-12-04 17:16:53.680 -0800,44,BF2B89E4-20AD-4334-A98B-17808832B17C,1512436610.869942,49.27716275711904,-122.9074344817287,342.7374,-1,-1,10,65,-9999,58351.986109875,-0.2095489501953125,-0.9622650146484375,0.0212554931640625,58351.959683875,0.2905175854140189,0.4904253757958358,0.2850551757021574,58351.962183875,2.010702761213342,-1.963009070273764,1.435663471225254,0.2986553609371185,0.5096480250358582,0.2840680181980133,-0.01955212652683258,0.01960045099258423,0.006045937538146973,XArbitraryCorrectedZVertical,0.7245873212814331,-0.02684497646987438,0.06048935279250145,0.6859981417655945,-0.1244908422231674,-0.990883469581604,0.05149487778544426,-9.700107574462891,-59.04869842529297,-11.56576538085938,2
2017-12-04 17:16:53.700 -0800,45,BF2B89E4-20AD-4334-A98B-17808832B17C,1512436610.869942,49.27716275711904,-122.9074344817287,342.7374,-1,-1,10,65,-9999,58352.020034875,-0.1679840087890625,-0.9903564453125,0.0855255126953125,58351.993609875,0.3110273879170461,0.2872858394312077,0.2943277699855953,58351.99741787501,2.048976949265836,-1.988292460174754,1.421886691124534,0.3150573074817657,0.2911174297332764,0.3030686974525452,-0.05566908419132233,0.02820956707000732,-0.02817273139953613,XArbitraryCorrectedZVertical,0.7275992035865784,-0.02601877599954605,0.06880370527505875,0.6820470690727234,-0.1356150954961777,-0.9889334440231323,0.06015515699982643,-10.30441093444824,-59.23178100585938,-11.2202033996582,2
2017-12-04 17:16:53.730 -0800,46,BF2B89E4-20AD-4334-A98B-17808832B17C,1512436610.869942,49.27716275711904,-122.9074344817287,342.7374,-1,-1,10,65,-9999,58352.05396100001,-0.1472320556640625,-0.966094970703125,0.065948486328125,58352.026343875,0.3048427289175551,0.5595461239921884,0.4980334943979742,58352.032593875,2.07179270298301,-1.996405161406892,1.404233200673454,0.3141331374645233,0.5754691958427429,0.5120612382888794,-0.008880645036697388,-0.01783740520477295,0.02757227420806885,XArbitraryCorrectedZVertical,0.7304425239562988,-0.02606450580060482,0.07917415350675583,0.6778683066368103,-0.1510009467601776,-0.9861603975296021,0.06845127791166306,-10.81037139892578,-58.91916656494141,-10.77549934387207,2
2017-12-04 17:16:53.770 -0800,47,BF2B89E4-20AD-4334-A98B-17808832B17C,1512436610.869942,49.27716275711904,-122.9074344817287,342.7374,-1,-1,10,65,-9999,58352.08669500001,-0.1717376708984375,-0.959564208984375,0.078948974609375,58352.060269,0.4936150438334238,0.6983607326514787,0.5844935518196147,58352.06782800001,2.100169419868067,-1.999971865170832,1.379758253844772,0.5009211897850037,0.6934107542037964,0.5996847748756409,0.006639808416366577,0.02431869506835938,-0.008836030960083008,XArbitraryCorrectedZVertical,0.7340986728668213,-0.02459129132330418,0.09508910030126572,0.6719017624855042,-0.1726554334163666,-0.9818076491355896,0.07901118695735931,-11.88154220581055,-58.80782318115234,-10.30317497253418,2
2017-12-04 17:16:53.800 -0800,48,BF2B89E4-20AD-4334-A98B-17808832B17C,1512436610.869942,49.27716275711904,-122.9074344817287,342.7374,-1,-1,10,65,-9999,58352.12062,-0.17694091796875,-0.958099365234375,0.096893310546875,58352.09419500001,0.3559945966069251,0.3740654761836577,0.4888684918225755,58352.103003,2.125630508081928,-2.006250685236691,1.355607838820883,0.3357885777950287,0.3130606412887573,0.4518864452838898,0.00426967442035675,0.0180433988571167,-0.01942241191864014,XArbitraryCorrectedZVertical,0.7378458976745605,-0.02487489767372608,0.10875104367733,0.6656854152679443,-0.1936007291078568,-0.9769361615180969,0.09007065743207932,-12.74211502075195,-58.61650085449219,-9.834827423095703,2
2017-12-04 17:16:53.841 -0800,49,BF2B89E4-20AD-4334-A98B-17808832B17C,1512436610.869942,49.27716275711904,-122.9074344817287,342.7374,-1,-1,10,65,-9999,58352.15454600001,-0.137359619140625,-1.001190185546875,0.1410980224609375,58352.12692900001,0.2983009400158845,0.02812191584680072,0.1614088673475225,58352.13823700001,2.152607246477004,-2.029110032058219,1.343744485267548,0.3383651673793793,0.04083850979804993,0.154938280582428,0.05666935443878174,-0.0340580940246582,0.0229802131652832,XArbitraryCorrectedZVertical,0.7410213351249695,-0.02615690976381302,0.112865224480629,0.6614105701446533,-0.2018719911575317,-0.9743342995643616,0.09959360957145691,-13.66046905517578,-58.23397827148438,-9.437387466430664,2
2017-12-04 17:16:53.871 -0800,50,BF2B89E4-20AD-4334-A98B-17808832B17C,1512436610.869942,49.27716275711904,-122.9074344817287,342.7374,-1,-1,10,65,-9999,58352.18728000001,-0.1880950927734375,-1.00897216796875,0.1949462890625,58352.160854,0.5181363658864373,0.294418317462658,0.2461509195499528,58352.173413,2.200891785772377,-2.068282225026569,1.329569808640389,0.5314550399780273,0.3784213960170746,0.309202641248703,0.04963934421539307,-0.02153849601745605,0.04464316368103027,XArbitraryCorrectedZVertical,0.7458927631378174,-0.02540156431496143,0.1184210702776909,0.6549613475799561,-0.2099329233169556,-0.9710456728935242,0.1140025034546852,-13.77572822570801,-58.18367004394531,-8.596155166625977,2
2017-12-04 17:16:53.922 -0800,51,BF2B89E4-20AD-4334-A98B-17808832B17C,1512436610.869942,49.27716275711904,-122.9074344817287,342.7374,-1,-1,10,65,-9999,58352.221205,-0.317718505859375,-0.7290191650390625,0.1443328857421875,58352.19478000001,0.4853387381137845,0.4435755785313799,0.5019177148478547,58352.20864700001,2.226968669519251,-2.080125475265001,1.30908532738927,0.1659313291311264,-0.005790421739220619,0.2899319231510162,-0.04139891266822815,0.06043112277984619,0.001058220863342285,XArbitraryCorrectedZVertical,0.7499475479125977,-0.0256088450551033,0.1284622400999069,0.6483975052833557,-0.2258893102407455,-0.9659487009048462,0.1261542737483978,-14.23447799682617,-58.25183868408203,-8.141223907470703,2
2017-12-04 17:16:53.931 -0800,52,BF2B89E4-20AD-4334-A98B-17808832B17C,1512436610.869942,49.27716275711904,-122.9074344817287,342.7374,-1,-1,10,65,-9999,58352.25513100001,-0.1597137451171875,-0.9734954833984375,0.2334136962890625,58352.22751400001,-0.1852122011706507,-0.4374854617505867,-0.2021507046518817,58352.243822,2.21032651547991,-2.077661265390955,1.320029060982962,-0.01922544091939926,-0.42011359333992,-0.1041868850588799,0.1021377593278885,-0.09391498565673828,-0.1541347503662109,XArbitraryCorrectedZVertical,0.7479685544967651,-0.02779136598110199,0.1207950338721275,0.6520571112632751,-0.2169448882341385,-0.9687222838401794,0.1204586401581764,-14.15085601806641,-58.40360260009766,-8.248081207275391,2
2017-12-04 17:16:53.971 -0800,53,BF2B89E4-20AD-4334-A98B-17808832B17C,1512436610.869942,49.27716275711904,-122.9074344817287,342.7374,-1,-1,10,65,-9999,58352.28786400001,-0.2632904052734375,-0.953216552734375,0.08160400390625,58352.261439,-0.3099424160889478,-0.1193698042761857,-0.04415494455740476,58352.27905600001,2.186410312751518,-2.059385529457542,1.325246000551787,-0.3286608457565308,-0.01128558814525604,0.02324432693421841,0.009032189846038818,0.02176153659820557,0.01506555080413818,XArbitraryCorrectedZVertical,0.7457869052886963,-0.0291878953576088,0.1182717755436897,0.6549510955810547,-0.2146443724632263,-0.9700036644935608,0.1141000837087631,-13.92346572875977,-58.34381866455078,-8.87513542175293,2
2017-12-04 17:16:54.001 -0800,54,BF2B89E4-20AD-4334-A98B-17808832B17C,1512436610.869942,49.27716275711904,-122.9074344817287,342.7374,-1,-1,10,65,-9999,58352.32179,-0.3110198974609375,-0.956573486328125,0.1641082763671875,58352.29536400001,0.2658005210208845,-0.08176117599430467,0.1051799493560255,58352.314231,2.204275974669974,-2.078589099886994,1.318041785364527,0.5531302094459534,-0.1562874913215637,0.09358890354633331,-0.1359629780054092,0.01731479167938232,-0.01659941673278809,XArbitraryCorrectedZVertical,0.7482244372367859,-0.03094857931137085,0.1190556213259697,0.6519410610198975,-0.2185139507055283,-0.9682272672653198,0.1215952485799789,-14.22904396057129,-58.15007019042969,-8.505825042724609,2
2017-12-04 17:16:54.032 -0800,55,BF2B89E4-20AD-4334-A98B-17808832B17C,1512436610.869942,49.27716275711904,-122.9074344817287,342.7374,-1,-1,10,65,-9999,58352.35571500001,-0.2110443115234375,-1.013824462890625,0.154083251953125,58352.32809800001,0.3589810654533399,-0.3396339990822413,0.1143215161138315,58352.314231,2.204275974669974,-2.078589099886994,1.318041785364527,0.5531302094459534,-0.1562874913215637,0.09358890354633331,-0.1359629780054092,0.01731479167938232,-0.01659941673278809,XArbitraryCorrectedZVertical,0.7482244372367859,-0.03094857931137085,0.1190556213259697,0.6519410610198975,-0.2185139507055283,-0.9682272672653198,0.1215952485799789,-14.22904396057129,-58.15007019042969,-8.505825042724609,2
2017-12-04 17:16:54.077 -0800,56,BF2B89E4-20AD-4334-A98B-17808832B17C,1512436610.869942,49.27716275711904,-122.9074344817287,342.7374,-1,-1,10,65,-9999,58352.38844900001,-0.1705322265625,-0.9333953857421875,0.1626739501953125,58352.362024,0.5840975397655199,-0.03490818293654064,0.2471256365089218,58352.384641,2.278017629236067,-2.16064141885433,1.292011045791444,0.3956441879272461,-0.06118860468268394,0.2108067274093628,0.01974616944789886,0.05230230093002319,0.02979552745819092,XArbitraryCorrectedZVertical,0.7583845853805542,-0.03722579032182693,0.1193708777427673,0.6397003531455994,-0.2286847680807114,-0.9613904356956482,0.1530658751726151,-14.85171127319336,-58.05870819091797,-6.708734512329102,2
2017-12-04 17:16:54.102 -0800,57,BF2B89E4-20AD-4334-A98B-17808832B17C,1512436610.869942,49.27716275711904,-122.9074344817287,342.7374,-1,-1,10,65,-9999,58352.422375,-0.1104583740234375,-0.9893798828125,0.134002685546875,58352.39594900001,0.1651969476820512,-0.08974320241349017,0.1882284974212745,58352.384641,2.278017629236067,-2.16064141885433,1.292011045791444,0.3956441879272461,-0.06118860468268394,0.2108067274093628,0.01974616944789886,0.05230230093002319,0.02979552745819092,XArbitraryCorrectedZVertical,0.7583845853805542,-0.03722579032182693,0.1193708777427673,0.6397003531455994,-0.2286847680807114,-0.9613904356956482,0.1530658751726151,-14.85171127319336,-58.05870819091797,-6.708734512329102,2
2017-12-04 17:16:54.132 -0800,58,BF2B89E4-20AD-4334-A98B-17808832B17C,1512436610.869942,49.27716275711904,-122.9074344817287,342.7374,-1,-1,10,65,-9999,58352.45630000001,-0.1721954345703125,-1.01922607421875,0.2205810546875,58352.42868300001,0.6485399128749303,0.2913764548655695,0.3902558977146854,58352.41987500001,2.28661048457859,-2.169799419271483,1.279936354862167,0.3575656712055206,0.1100229993462563,0.2682044506072998,0.1209083050489426,-0.02491253614425659,-0.02708995342254639,XArbitraryCorrectedZVertical,0.7610662579536438,-0.04027416929602623,0.1219534873962402,0.6358321309089661,-0.2368445843458176,-0.9579976201057434,0.1616877168416977,-15.40334701538086,-57.65444183349609,-6.013832092285156,2
2017-12-04 17:16:54.172 -0800,59,BF2B89E4-20AD-4334-A98B-17808832B17C,1512436610.869942,49.27716275711904,-122.9074344817287,342.7374,-1,-1,10,65,-9999,58352.48903400001,-0.2524261474609375,-0.9007415771484375,0.1697540283203125,58352.462609,1.128963520880865,0.5396618980292208,0.4588237736687376,58352.45505,2.331543760930836,-2.200710546693159,1.252868685594398,1.02606201171875,0.4707400798797607,0.4662163555622101,0.086417555809021,-0.08153253793716431,0.03039669990539551,XArbitraryCorrectedZVertical,0.7684051990509033,-0.04030404984951019,0.1315853297710419,0.6249906420707703,-0.2526009976863861,-0.9498852491378784,0.1841419339179993,-16.03540420532227,-57.45098876953125,-5.00840950012207,2
2017-12-04 17:16:54.203 -0800,60,BF2B89E4-20AD-4334-A98B-17808832B17C,1512436610.869942,49.27716275711904,-122.9074344817287,342.7374,-1,-1,10,65,-9999,58352.52296,-0.224945068359375,-0.8919219970703125,0.2788543701171875,58352.49653400001,1.151733548201042,0.2532245417213123,0.1382529479853925,58352.49028400001,2.404579039278601,-2.251753751238936,1.216155680918406,1.237478971481323,0.4120268225669861,0.3346635699272156,0.0173773467540741,0.03702974319458008,-0.04885327816009521,XArbitraryCorrectedZVertical,0.7796777486801147,-0.03749975189566612,0.1437654346227646,0.6082985401153564,-0.269803524017334,-0.9377713203430176,0.2186072468757629,-16.91633415222168,-57.2657470703125,-2.432422637939453,2
2017-12-04 17:16:54.242 -0800,61,BF2B89E4-20AD-4334-A98B-17808832B17C,1512436610.869942,49.27716275711904,-122.9074344817287,342.7374,-1,-1,10,65,-9999,58352.55688500001,-0.179840087890625,-0.9096527099609375,0.1855316162109375,58352.52926800001,0.3607123864780004,0.2314718419375451,0.1463819808967504,58352.52546,2.468701960661144,-2.304425512645381,1.193165774440567,0.5403419733047485,0.147929772734642,0.05601408705115318,0.03834468126296997,0.04329520463943481,0.02686119079589844,XArbitraryCorrectedZVertical,0.7888515591621399,-0.03397016599774361,0.1479382365942001,0.595544159412384,-0.2738640904426575,-0.9295409321784973,0.246881514787674,-17.09011077880859,-56.90695953369141,-1.324577331542969,2
2017-12-04 17:16:54.273 -0800,62,BF2B89E4-20AD-4334-A98B-17808832B17C,1512436610.869942,49.27716275711904,-122.9074344817287,342.7374,-1,-1,10,65,-9999,58352.58961900001,-0.2998504638671875,-0.8377838134765625,0.3511810302734375,58352.563194,0.7070029567048948,0.7210061240326404,0.2982548673290261,58352.56069400001,2.482676776367148,-2.301673933843043,1.176937870556251,0.5986810326576233,0.6948844194412231,0.3451675772666931,0.100190281867981,0.01822280883789062,-0.07224893569946289,XArbitraryCorrectedZVertical,0.7918867468833923,-0.03157467395067215,0.1569177657365799,0.5893169045448303,-0.2857371866703033,-0.9234352111816406,0.2561631500720978,-17.76760101318359,-56.87545013427734,-0.6285533905029297,2
2017-12-04 17:16:54.320 -0800,63,BF2B89E4-20AD-4334-A98B-17808832B17C,1512436610.869942,49.27716275711904,-122.9074344817287,342.7374,-1,-1,10,65,-9999,58352.623545,-0.362945556640625,-0.848846435546875,0.1669158935546875,58352.59711900001,-0.1081951803422132,0.4433252413889124,0.2335355254662475,58352.595869,2.501370964554481,-2.296074937277313,1.158441052275545,0.04843304306268692,0.5332052707672119,0.2465776205062866,4.887580871582031e-05,0.07839560508728027,0.0853351354598999,XArbitraryCorrectedZVertical,0.7951064705848694,-0.02699403092265129,0.1688361316919327,0.5818683505058289,-0.2998993396759033,-0.9161794185638428,0.2658459544181824,-18.27740859985352,-56.78062438964844,-0.0006885528564453125,2
2017-12-04 17:16:54.334 -0800,64,BF2B89E4-20AD-4334-A98B-17808832B17C,1512436610.869942,49.27716275711904,-122.9074344817287,342.7374,-1,-1,10,65,-9999,58352.65747000001,-0.3394012451171875,-0.8188323974609375,0.2182769775390625,58352.62985300001,0.07328273634792841,0.2549321606122711,0.1133529244253696,58352.63110300001,2.490200365051908,-2.275073351502711,1.154661580215772,0.08593558520078659,0.241215705871582,0.1199824512004852,-0.03362143039703369,0.05456608533859253,-0.07072067260742188,XArbitraryCorrectedZVertical,0.7938365340232849,-0.02624258399009705,0.174792543053627,0.581878125667572,-0.3080533742904663,-0.9146581888198853,0.2617302238941193,-18.61655044555664,-56.74177551269531,0.04237747192382812,2
2017-12-04 17:16:54.374 -0800,65,BF2B89E4-20AD-4334-A98B-17808832B17C,1512436610.869942,49.27716275711904,-122.9074344817287,342.7374,-1,-1,10,65,-9999,58352.69020400001,-0.3260498046875,-0.933135986328125,0.3061370849609375,58352.663778,-0.01319942531075973,0.1086681577518113,0.06073844866532817,58352.666278,2.485422794214043,-2.262826527553538,1.151016221768404,0.001433184137567878,0.12241031229496,0.07475440204143524,-0.03234493732452393,0.09646719694137573,-0.03617167472839355,XArbitraryCorrectedZVertical,0.7933365106582642,-0.02547775395214558,0.1791050434112549,0.5812823176383972,-0.3138006627559662,-0.913178563117981,0.2600638568401337,-18.88944816589355,-56.45893859863281,-0.2482242584228516,2
2017-12-04 17:16:54.404 -0800,66,BF2B89E4-20AD-4334-A98B-17808832B17C,1512436610.869942,49.27716275711904,-122.9074344817287,342.7374,-1,-1,10,65,-9999,58352.724129,-0.3033294677734375,-0.9203338623046875,0.2761993408203125,58352.69770400001,-0.1520230887177562,-0.01575046731894663,-0.01207983238849042,58352.70151200001,2.477831544105235,-2.254178186892666,1.15120141518648,-0.1373172849416733,-0.01408918295055628,0.0009105540812015533,-0.01284471154212952,-0.0131375789642334,0.0421600341796875,XArbitraryCorrectedZVertical,0.7924293279647827,-0.025925412774086,0.1802821457386017,0.5821350812911987,-0.315905898809433,-0.9132540225982666,0.2572327256202698,-19.07630920410156,-56.6937255859375,-0.1233310699462891,2
2017-12-04 17:16:54.434 -0800,67,BF2B89E4-20AD-4334-A98B-17808832B17C,1512436610.869942,49.27716275711904,-122.9074344817287,342.7374,-1,-1,10,65,-9999,58352.75805500001,-0.2535858154296875,-0.8842620849609375,0.2266082763671875,58352.73043800001,-0.1861030285552822,0.2004960826666154,0.05476870676580656,58352.736688,2.462586309728661,-2.237274714881417,1.154789165145157,-0.1757453978061676,0.2186191976070404,0.07093066722154617,0.02295321226119995,-0.006005585193634033,0.004321575164794922,XArbitraryCorrectedZVertical,0.790083646774292,-0.02611979655921459,0.1816752552986145,0.5848750472068787,-0.3176309168338776,-0.9147098064422607,0.2498288303613663,-19.03064918518066,-56.51613616943359,-0.6829490661621094,2
2017-12-04 17:16:54.480 -0800,68,BF2B89E4-20AD-4334-A98B-17808832B17C,1512436610.869942,49.27716275711904,-122.9074344817287,342.7374,-1,-1,10,65,-9999,58352.79078900001,-0.3535919189453125,-0.79498291015625,0.21429443359375,58352.764363,-0.05824972462664913,0.5972234618301935,0.2123295726542735,58352.771922,2.447668027163921,-2.206524516066152,1.15155248333793,-0.06904146075248718,0.593331515789032,0.2222480922937393,0.03632861375808716,0.07651346921920776,-0.001986265182495117,XArbitraryCorrectedZVertical,0.7875802516937256,-0.02383871749043465,0.1902162581682205,0.5856330394744873,-0.327542632818222,-0.9133970141410828,0.2417018711566925,-19.52361297607422,-56.25998687744141,-1.215579986572266,2
2017-12-04 17:16:54.505 -0800,69,BF2B89E4-20AD-4334-A98B-17808832B17C,1512436610.869942,49.27716275711904,-122.9074344817287,342.7374,-1,-1,10,65,-9999,58352.824714,-0.3336944580078125,-0.8949127197265625,0.2213134765625,58352.79828900001,-0.3604503314267367,0.04530782699330006,-0.1592570331867385,58352.807097,2.430231982148354,-2.181080121320547,1.155969086294732,-0.3807095885276794,-0.006911374628543854,-0.1952014863491058,-0.03604176640510559,0.09665876626968384,-0.02502787113189697,XArbitraryCorrectedZVertical,0.7842202186584473,-0.02205644361674786,0.1940114498138428,0.5889572501182556,-0.3302760124206543,-0.9151859879493713,0.2309756726026535,-19.47470283508301,-56.60506439208984,-1.790163040161133,2
2017-12-04 17:16:54.536 -0800,70,BF2B89E4-20AD-4334-A98B-17808832B17C,1512436610.869942,49.27716275711904,-122.9074344817287,342.7374,-1,-1,10,65,-9999,58352.85864000001,-0.3387603759765625,-0.940399169921875,0.265380859375,58352.83102300001,-0.3847815037779186,-0.02171435026407008,-0.2285556805439083,58352.84233100001,2.414818478908358,-2.168832604985315,1.170952884104764,-0.3703185319900513,0.05021372810006142,-0.1676007211208344,0.007516354322433472,0.005319952964782715,0.04499256610870361,XArbitraryCorrectedZVertical,0.7804904580116272,-0.02045497298240662,0.190498948097229,0.5950843095779419,-0.321710079908371,-0.9211219549179077,0.2191675156354904,-19.12596130371094,-56.58898162841797,-2.691408157348633,2
2017-12-04 17:16:54.575 -0800,71,BF2B89E4-20AD-4334-A98B-17808832B17C,1512436610.869942,49.27716275711904,-122.9074344817287,342.7374,-1,-1,10,65,-9999,58352.89137400001,-0.3496246337890625,-0.8787841796875,0.216400146484375,58352.864948,-0.3776333130960369,0.2780723673239696,-0.09469721467325556,58352.877507,2.392992230633501,-2.141149543945111,1.180523433648359,-0.4131776094436646,0.2961010038852692,-0.1179780289530754,-0.01306375861167908,0.01957762241363525,0.07588601112365723,XArbitraryCorrectedZVertical,0.7761302590370178,-0.01807462796568871,0.1923129707574844,0.6002582907676697,-0.3202187120914459,-0.9248052835464478,0.2054097354412079,-19.04534530639648,-56.69398498535156,-3.150127410888672,2
2017-12-04 17:16:54.605 -0800,72,BF2B89E4-20AD-4334-A98B-17808832B17C,1512436610.869942,49.27716275711904,-122.9074344817287,342.7374,-1,-1,10,65,-9999,58352.925299,-0.29315185546875,-1.023483276367188,0.159942626953125,58352.89887400001,-0.518931319471826,0.07576533511610029,-0.3590769392525828,58352.91274000001,2.366984384340438,-2.111675036333911,1.197754200361243,-0.4925599992275238,0.04453533515334129,-0.4017535448074341,-0.06022503972053528,-0.05534929037094116,-0.02268743515014648,XArbitraryCorrectedZVertical,0.7704651951789856,-0.01443971134722233,0.1913577616214752,0.6079114675521851,-0.3124251365661621,-0.9312229752540588,0.1876502484083176,-18.38311004638672,-57.01911163330078,-4.373041152954102,2
2017-12-04 17:16:54.640 -0800,73,BF2B89E4-20AD-4334-A98B-17808832B17C,1512436610.869942,49.27716275711904,-122.9074344817287,342.7374,-1,-1,10,65,-9999,58352.95922400001,-0.2806396484375,-0.958648681640625,0.146453857421875,58352.93160700001,-0.3029995551271113,0.2586030618588363,-0.3179396225263468,58352.947916,2.355437675615501,-2.093574580688246,1.213388491499531,-0.2227621078491211,0.3932702839374542,-0.200729638338089,0.08426034450531006,-0.03256875276565552,-0.05109238624572754,XArbitraryCorrectedZVertical,0.766326904296875,-0.0089290551841259,0.190624937415123,0.6134529709815979,-0.3031171560287476,-0.936806857585907,0.1746733039617538,-17.91382026672363,-56.93455505371094,-5.143306732177734,2
2017-12-04 17:16:54.675 -0800,74,BF2B89E4-20AD-4334-A98B-17808832B17C,1512436610.869942,49.27716275711904,-122.9074344817287,342.7374,-1,-1,10,65,-9999,58352.99195800001,-0.3578338623046875,-0.9707489013671875,0.1591644287109375,58352.965533,-0.2009299116081893,0.3126375351121081,-0.2435996112256569,58352.98315,2.349070025332309,-2.076304396782696,1.223123174177154,-0.2694824039936066,0.1603574603796005,-0.2874955534934998,-0.07184019684791565,-0.02859723567962646,0.01511168479919434,XArbitraryCorrectedZVertical,0.763205885887146,-0.003269681707024574,0.192648321390152,0.6167587637901306,-0.2980938851833344,-0.940168023109436,0.1649878323078156,-17.58108520507812,-57.09877014160156,-5.719686508178711,2
2017-12-04 17:16:54.722 -0800,75,BF2B89E4-20AD-4334-A98B-17808832B17C,1512436610.869942,49.27716275711904,-122.9074344817287,342.7374,-1,-1,10,65,-9999,58353.025884,-0.274261474609375,-0.997283935546875,0.1778717041015625,58352.99945800001,-0.2995496962510226,0.05871844097850307,-0.3139584630127873,58353.018325,2.338014134129296,-2.06285384573817,1.237503459335258,-0.2862688601016998,0.115292564034462,-0.3022466897964478,-0.001288771629333496,-0.05918025970458984,0.03902912139892578,XArbitraryCorrectedZVertical,0.7597886919975281,0.0008348394185304642,0.1904320567846298,0.6216545701026917,-0.2883382737636566,-0.9449701905250549,0.1545591056346893,-16.9434757232666,-57.48478698730469,-6.257343292236328,2
2017-12-04 17:16:54.736 -0800,76,BF2B89E4-20AD-4334-A98B-17808832B17C,1512436610.869942,49.27716275711904,-122.9074344817287,342.7374,-1,-1,10,65,-9999,58353.05980912501,-0.274932861328125,-0.920989990234375,0.114349365234375,58353.03219212501,-0.2799706685489781,0.200414589937259,-0.2470731722354473,58353.018325,2.338014134129296,-2.06285384573817,1.237503459335258,-0.2862688601016998,0.115292564034462,-0.3022466897964478,-0.001288771629333496,-0.05918025970458984,0.03902912139892578,XArbitraryCorrectedZVertical,0.7597886919975281,0.0008348394185304642,0.1904320567846298,0.6216545701026917,-0.2883382737636566,-0.9449701905250549,0.1545591056346893,-16.9434757232666,-57.48478698730469,-6.257343292236328,2
2017-12-04 17:16:54.776 -0800,77,BF2B89E4-20AD-4334-A98B-17808832B17C,1512436610.869942,49.27716275711904,-122.9074344817287,342.7374,-1,-1,10,65,-9999,58353.09254312501,-0.180694580078125,-0.8969573974609375,0.1291046142578125,58353.066118125,-0.2389694393544452,0.1291132454403495,-0.2191185029051035,58353.08873512501,2.31117607587684,-2.027260205338403,1.2598811198752,-0.2651137113571167,0.008779262192547321,-0.2440484017133713,0.08279818296432495,0.05230420827865601,-0.01847994327545166,XArbitraryCorrectedZVertical,0.7532274127006531,0.008380444720387459,0.1892910748720169,0.6298770308494568,-0.27460116147995,-0.952053964138031,0.1348435282707214,-15.92962074279785,-57.71028900146484,-7.140510559082031,2
2017-12-04 17:16:54.806 -0800,78,BF2B89E4-20AD-4334-A98B-17808832B17C,1512436610.869942,49.27716275711904,-122.9074344817287,342.7374,-1,-1,10,65,-9999,58353.126468125,-0.261962890625,-0.9365234375,0.1309356689453125,58353.10004312501,-0.2629051322837503,0.01924506730134861,-0.262524832880087,58353.08873512501,2.31117607587684,-2.027260205338403,1.2598811198752,-0.2651137113571167,0.008779262192547321,-0.2440484017133713,0.08279818296432495,0.05230420827865601,-0.01847994327545166,XArbitraryCorrectedZVertical,0.7532274127006531,0.008380444720387459,0.1892910748720169,0.6298770308494568,-0.27460116147995,-0.952053964138031,0.1348435282707214,-15.92962074279785,-57.71028900146484,-7.140510559082031,2
2017-12-04 17:16:54.836 -0800,79,BF2B89E4-20AD-4334-A98B-17808832B17C,1512436610.869942,49.27716275711904,-122.9074344817287,342.7374,-1,-1,10,65,-9999,58353.16039412501,-0.3640289306640625,-0.9524383544921875,0.10894775390625,58353.13277712501,-0.250963251639726,0.07851158683218999,-0.1213168413491426,58353.123968125,2.296772394445932,-2.011892465186385,1.271088867061352,-0.2495583742856979,0.1054428964853287,-0.1919740736484528,0.01960006356239319,0.02335506677627563,0.01191020011901855,XArbitraryCorrectedZVertical,0.7502651214599609,0.01115942653268576,0.1873499602079391,0.633936882019043,-0.2669755518436432,-0.9554228782653809,0.1260445713996887,-15.40991973876953,-57.75267791748047,-7.383884429931641,2
2017-12-04 17:16:54.880 -0800,80,BF2B89E4-20AD-4334-A98B-17808832B17C,1512436610.869942,49.27716275711904,-122.9074344817287,342.7374,-1,-1,10,65,-9999,58353.193128125,-0.323486328125,-0.947235107421875,0.0685272216796875,58353.166702125,-0.2574243467603672,-0.1762336198715576,-0.2735777503522429,58353.15914412501,2.27650199564132,-1.991093818010517,1.27938821301398,-0.2719037234783173,-0.06593909859657288,-0.2083467096090317,-0.09482628107070923,0.003403067588806152,-0.002799630165100098,XArbitraryCorrectedZVertical,0.7472963333129883,0.01268237922340631,0.1863154768943787,0.6377084851264954,-0.2622904181480408,-0.9578402638435364,0.1172253042459488,-15.11577796936035,-57.98821258544922,-8.145418167114258,2
2017-12-04 17:16:54.907 -0800,81,BF2B89E4-20AD-4334-A98B-17808832B17C,1512436610.869942,49.27716275711904,-122.9074344817287,342.7374,-1,-1,10,65,-9999,58353.227053125,-0.2194366455078125,-1.011550903320312,0.0950927734375,58353.20062812501,-0.1897406402882214,-0.1277321300990345,-0.2869521453466208,58353.194378125,2.262515093501305,-1.98411580567604,1.292220320602068,-0.2353588938713074,-0.1888117790222168,-0.3002286553382874,-0.07166138291358948,0.01421284675598145,-0.04191899299621582,XArbitraryCorrectedZVertical,0.7450088858604431,0.0135972835123539,0.1807245463132858,0.6419609785079956,-0.2518249452114105,-0.9614480137825012,0.1104462519288063,-14.73827171325684,-58.29868316650391,-8.679426193237305,2
2017-12-04 17:16:54.960 -0800,82,BF2B89E4-20AD-4334-A98B-17808832B17C,1512436610.869942,49.27716275711904,-122.9074344817287,342.7374,-1,-1,10,65,-9999,58353.26097912501,-0.264617919921875,-0.953338623046875,0.03802490234375,58353.233362125,-0.07304225290149426,-0.03192704041230594,-0.2096291273089332,58353.22955312501,2.256815470580059,-1.981816712540173,1.302360151619268,-0.1125883162021637,-0.0413726232945919,-0.2177739441394806,0.01499496400356293,-0.04827964305877686,-0.005807876586914062,XArbitraryCorrectedZVertical,0.7434708476066589,0.01530991960316896,0.176787480711937,0.6447957158088684,-0.2431291341781616,-0.9641868472099304,0.1059665903449059,-14.27201080322266,-58.09436798095703,-8.717306137084961,2
2017-12-04 17:16:54.977 -0800,83,BF2B89E4-20AD-4334-A98B-17808832B17C,1512436610.869942,49.27716275711904,-122.9074344817287,342.7374,-1,-1,10,65,-9999,58353.29371212501,-0.21697998046875,-0.9901580810546875,0.156524658203125,58353.267287125,0.03233823248461418,-0.2084914248912513,-0.2072951329295877,58353.264787125,2.261909500322984,-1.990502231740826,1.308370284511473,0.01400422491133213,-0.2014154642820358,-0.203814297914505,-0.02920855581760406,0.01280629634857178,-0.06687796115875244,XArbitraryCorrectedZVertical,0.7433655261993408,0.01623237691819668,0.1734479814767838,0.6458010673522949,-0.2369047254323959,-0.9657634496688843,0.1057115942239761,-13.90473937988281,-58.43239593505859,-8.653867721557617,2
2017-12-04 17:16:55.007 -0800,84,BF2B89E4-20AD-4334-A98B-17808832B17C,1512436610.869942,49.27716275711904,-122.9074344817287,342.7374,-1,-1,10,65,-9999,58353.327638125,-0.1952667236328125,-0.9826507568359375,0.1390228271484375,58353.30121212501,-0.04361618706888173,-0.07583404467222432,-0.1141942170137257,58353.29996212501,2.275070177916038,-2.009932325562874,1.31319472253263,-0.004237034823745489,-0.1235202625393867,-0.126851499080658,0.01360553503036499,-0.02315431833267212,0.04821276664733887,XArbitraryCorrectedZVertical,0.7442377805709839,0.01631169952452183,0.1690714806318283,0.6459549069404602,-0.230585515499115,-0.9670037627220154,0.1083118915557861,-13.6088924407959,-58.34482574462891,-8.70704460144043,2
2017-12-04 17:16:55.043 -0800,85,BF2B89E4-20AD-4334-A98B-17808832B17C,1512436610.869942,49.27716275711904,-122.9074344817287,342.7374,-1,-1,10,65,-9999,58353.36156312501,-0.294281005859375,-0.9659271240234375,0.066741943359375,58353.33394612501,-0.08320647351789068,-0.07151546264855183,-0.1622605462641298,58353.335196125,2.271284649883731,-2.007653994954212,1.317875923511199,-0.08242316544055939,-0.04573080316185951,-0.1375036239624023,0.02744567394256592,-0.002990365028381348,0.01063191890716553,XArbitraryCorrectedZVertical,0.7434000968933105,0.0170507226139307,0.1673399060964584,0.6473494172096252,-0.2267254590988159,-0.9681857824325562,0.105868861079216,-13.35847091674805,-58.60722351074219,-8.576675415039062,2
2017-12-04 17:16:55.078 -0800,86,BF2B89E4-20AD-4334-A98B-17808832B17C,1512436610.869942,49.27716275711904,-122.9074344817287,342.7374,-1,-1,10,65,-9999,58353.39429712501,-0.180023193359375,-0.954254150390625,0.143768310546875,58353.367872125,-0.01738511559603727,-0.2865667859368863,-0.263566661498526,58353.37037212501,2.276187305211787,-2.018621897867316,1.325031501935533,-0.01659505441784859,-0.2728569507598877,-0.2537722289562225,-0.08196847140789032,0.006481051445007324,-0.0372011661529541,XArbitraryCorrectedZVertical,0.7432148456573486,0.01746948063373566,0.1627835929393768,0.6487115025520325,-0.2193010598421097,-0.9699515104293823,0.1053469777107239,-13.01046371459961,-58.76000213623047,-8.69310188293457,2
2017-12-04 17:16:55.120 -0800,87,BF2B89E4-20AD-4334-A98B-17808832B17C,1512436610.869942,49.27716275711904,-122.9074344817287,342.7374,-1,-1,10,65,-9999,58353.428223125,-0.2447357177734375,-0.95269775390625,0.1205902099609375,58353.40179712501,-0.01477015772168846,-0.1021167814702163,-0.1228039505018428,58353.405606125,2.290875177422087,-2.040623061140723,1.331252962139662,-0.01285217422991991,-0.1015805900096893,-0.118322029709816,0.05399918556213379,0.01240098476409912,0.04319214820861816,XArbitraryCorrectedZVertical,0.7439050674438477,0.01764430478215218,0.1575843095779419,0.6491994261741638,-0.2115461826324463,-0.9714463949203491,0.1074121445417404,-12.6659107208252,-58.66980743408203,-8.417583465576172,2
2017-12-04 17:16:55.138 -0800,88,BF2B89E4-20AD-4334-A98B-17808832B17C,1512436610.869942,49.27716275711904,-122.9074344817287,342.7374,-1,-1,10,65,-9999,58353.46214812501,-0.2221527099609375,-0.964447021484375,0.0831451416015625,58353.434531125,-0.0623659064074756,-0.3142013433042026,-0.13675571882055,58353.44078112501,2.291709535371611,-2.049270760745969,1.334982454811409,-0.05720416456460953,-0.3224427700042725,-0.1333264261484146,-0.03694614768028259,0.01216518878936768,0.009786128997802734,XArbitraryCorrectedZVertical,0.7439896464347839,0.01624717377126217,0.1535756438970566,0.6500992178916931,-0.2073928266763687,-0.9723244905471802,0.1075691282749176,-12.52976417541504,-58.79856109619141,-8.439428329467773,2
2017-12-04 17:16:55.200 -0800,89,BF2B89E4-20AD-4334-A98B-17808832B17C,1512436610.869942,49.27716275711904,-122.9074344817287,342.7374,-1,-1,10,65,-9999,58353.494882125,-0.153106689453125,-0.935943603515625,0.0911865234375,58353.468456125,-0.06563440401332984,-0.530526722858031,-0.2323690609087928,58353.476015125,2.295491005798688,-2.069198382232799,1.341552685100485,-0.0594530813395977,-0.5277844071388245,-0.2236258834600449,0.03951171040534973,0.0006635189056396484,-0.01403439044952393,XArbitraryCorrectedZVertical,0.74440598487854,0.01309826225042343,0.145525336265564,0.6515438556671143,-0.1995916813611984,-0.9738385677337646,0.108623668551445,-12.14950752258301,-58.76833343505859,-8.338695526123047,2
2017-12-04 17:16:55.209 -0800,90,BF2B89E4-20AD-4334-A98B-17808832B17C,1512436610.869942,49.27716275711904,-122.9074344817287,342.7374,-1,-1,10,65,-9999,58353.528807125,-0.2505950927734375,-0.9680023193359375,0.0807342529296875,58353.50238212501,-0.03171105804790051,-0.5348197385352387,-0.2625277623572861,58353.51119012501,2.306988187650246,-2.098077750845315,1.349261329866062,-0.01794946566224098,-0.5682926177978516,-0.2751201689243317,-0.00731031596660614,0.06450480222702026,-0.06303000450134277,XArbitraryCorrectedZVertical,0.7451016902923584,0.01019732840359211,0.1363520622253418,0.6527836918830872,-0.1898790001869202,-0.9755613207817078,0.1105610281229019,-11.98772430419922,-58.75514984130859,-8.261007308959961,2
2017-12-04 17:16:55.239 -0800,91,BF2B89E4-20AD-4334-A98B-17808832B17C,1512436610.869942,49.27716275711904,-122.9074344817287,342.7374,-1,-1,10,65,-9999,58353.56273312501,-0.0874176025390625,-0.955657958984375,0.1439208984375,58353.535116125,0.01603728976834817,-0.7389419813421061,-0.3466397106458037,58353.546424125,2.336868172934001,-2.152047792483904,1.358546770491406,-0.004495545756071806,-0.7099120616912842,-0.3282248675823212,0.002964094281196594,-0.03663116693496704,0.06394720077514648,XArbitraryCorrectedZVertical,0.7468545436859131,0.006346933078020811,0.123420275747776,0.6534022092819214,-0.1760597825050354,-0.977559506893158,0.1156639829277992,-11.58126831054688,-58.89170074462891,-7.703351974487305,2
2017-12-04 17:16:55.279 -0800,92,BF2B89E4-20AD-4334-A98B-17808832B17C,1512436610.869942,49.27716275711904,-122.9074344817287,342.7374,-1,-1,10,65,-9999,58353.59546612501,-0.2320404052734375,-1.009445190429688,0.14019775390625,58353.569041125,-0.04707243753158657,-0.5919946113459319,-0.2139937820194641,58353.58160012501,2.35498976455351,-2.190914441074694,1.366465719143794,-0.06728416681289673,-0.6167781352996826,-0.2018028348684311,0.01218946278095245,0.08935022354125977,-0.03789889812469482,XArbitraryCorrectedZVertical,0.7476304769515991,0.002585935406386852,0.1126981750130653,0.6544771790504456,-0.16512830555439,-0.9791970252990723,0.1179160326719284,-11.07425880432129,-58.91965484619141,-7.536281585693359,2
2017-12-04 17:16:55.309 -0800,93,BF2B89E4-20AD-4334-A98B-17808832B17C,1512436610.869942,49.27716275711904,-122.9074344817287,342.7374,-1,-1,10,65,-9999,58353.629392125,-0.1711883544921875,-1.131668090820312,0.160980224609375,58353.60296612501,-0.123346436415892,-0.2385856778413648,-0.107819408312403,58353.616833125,2.350598612632313,-2.199332048798442,1.372104765773081,-0.1364828944206238,0.02874366752803326,0.01039048470556736,0.02192120254039764,-0.1977291107177734,0.1873360872268677,XArbitraryCorrectedZVertical,0.7470121383666992,-0.0002846202114596963,0.1066172420978546,0.6562051177024841,-0.1596622914075851,-0.9803256988525391,0.116054430603981,-10.93478965759277,-58.92874908447266,-7.665046691894531,2
2017-12-04 17:16:55.361 -0800,94,BF2B89E4-20AD-4334-A98B-17808832B17C,1512436610.869942,49.27716275711904,-122.9074344817287,342.7374,-1,-1,10,65,-9999,58353.66331712501,-0.1624603271484375,-1.086151123046875,0.0672454833984375,58353.63570012501,-0.1227632041371646,0.1369322864008222,0.09545035662952997,58353.65200912501,2.324304561568424,-2.169228661771955,1.372048353579685,-0.1089620068669319,0.1056519076228142,0.0935714989900589,-0.02252259850502014,-0.1719529628753662,0.01180267333984375,XArbitraryCorrectedZVertical,0.7453954815864563,-0.0002236098662251607,0.1092285811901093,0.6576129198074341,-0.1631310731172562,-0.9803145527839661,0.1112289503216743,-10.90271759033203,-59.14261627197266,-8.095657348632812,2
2017-12-04 17:16:55.379 -0800,95,BF2B89E4-20AD-4334-A98B-17808832B17C,1512436610.869942,49.27716275711904,-122.9074344817287,342.7374,-1,-1,10,65,-9999,58353.696051125,-0.2577972412109375,-0.9858856201171875,-0.05303955078125,58353.669626125,-0.0868872284604892,0.01730681865998894,0.09574783172329182,58353.687243125,2.301898288396929,-2.146642377313972,1.370725991578562,-0.06840449571609497,-0.08754255622625351,0.08234255760908127,-0.02319298684597015,-0.060535728931427,-0.08655393123626709,XArbitraryCorrectedZVertical,0.7443845868110657,-0.001506526255980134,0.1106304600834846,0.6585211157798767,-0.1666873842477798,-0.9800525903701782,0.1082213670015335,-11.20511054992676,-58.95058441162109,-8.256261825561523,2
2017-12-04 17:16:55.410 -0800,96,BF2B89E4-20AD-4334-A98B-17808832B17C,1512436610.869942,49.27716275711904,-122.9074344817287,342.7374,-1,-1,10,65,-9999,58353.729976125,-0.068267822265625,-1.159637451171875,0.0675506591796875,58353.70355112501,-0.04312163805445401,-0.7249880824945268,-0.0001757686319452297,58353.72241812501,2.294158000267551,-2.158033301276652,1.370808079666955,-0.012530367821455,-0.5585331320762634,-0.0007652165368199348,-0.09655681252479553,-0.03425908088684082,-0.02652561664581299,XArbitraryCorrectedZVertical,0.744961678981781,-0.008116785436868668,0.1038165986537933,0.6589293479919434,-0.1653755456209183,-0.9800689220428467,0.1100675687193871,-11.16875457763672,-58.98846435546875,-8.010730743408203,2
2017-12-04 17:16:55.443 -0800,97,BF2B89E4-20AD-4334-A98B-17808832B17C,1512436610.869942,49.27716275711904,-122.9074344817287,342.7374,-1,-1,10,65,-9999,58353.76390212501,-0.187713623046875,-0.9036865234375,0.266082763671875,58353.736285125,0.09612307112088399,-0.6509799010656608,-0.1447667736956173,58353.72241812501,2.294158000267551,-2.158033301276652,1.370808079666955,-0.012530367821455,-0.5585331320762634,-0.0007652165368199348,-0.09655681252479553,-0.03425908088684082,-0.02652561664581299,XArbitraryCorrectedZVertical,0.744961678981781,-0.008116785436868668,0.1038165986537933,0.6589293479919434,-0.1653755456209183,-0.9800689220428467,0.1100675687193871,-11.16875457763672,-58.98846435546875,-8.010730743408203,2
2017-12-04 17:16:55.470 -0800,98,BF2B89E4-20AD-4334-A98B-17808832B17C,1512436610.869942,49.27716275711904,-122.9074344817287,342.7374,-1,-1,10,65,-9999,58353.79407712501,-0.2492523193359375,-0.51312255859375,0.420745849609375,58353.736285125,0.09612307112088399,-0.6509799010656608,-0.1447667736956173,58353.757652125,2.311062846300603,-2.198890287749919,1.373772620474977,-0.1507759392261505,-0.9882364273071289,-0.1538567095994949,-0.1016802340745926,0.03779768943786621,0.1009955406188965,XArbitraryCorrectedZVertical,0.7465271949768066,-0.01444713305681944,0.09333907812833786,0.6586166620254517,-0.1583905667066574,-0.9806535243988037,0.1150231435894966,-11.14080047607422,-58.87255096435547,-7.837419509887695,2
2017-12-04 17:16:55.522 -0800,99,BF2B89E4-20AD-4334-A98B-17808832B17C,1512436610.869942,49.27716275711904,-122.9074344817287,342.7374,-1,-1,10,65,-9999,58353.82425312501,-0.0320892333984375,-1.2244873046875,-0.058837890625,58353.795327125,-0.1043274714910911,0.4086215892240899,-0.6174698777014118,58353.79282712501,2.279350031130248,-2.208854353523709,1.384751785692686,-0.256801575422287,-0.4623592495918274,-0.2647509276866913,0.1536897271871567,0.2196820378303528,-0.01964461803436279,XArbitraryCorrectedZVertical,0.7445692420005798,-0.0265358742326498,0.07615796476602554,0.662655234336853,-0.1485780328512192,-0.9827435612678528,0.1101750209927559,-10.67242622375488,-59.15925598144531,-8.045766830444336,2
2017-12-04 17:16:55.530 -0800,100,BF2B89E4-20AD-4334-A98B-17808832B17C,1512436610.869942,49.27716275711904,-122.9074344817287,342.7374,-1,-1,10,65,-9999,58353.85442812501,-0.045379638671875,-0.9738311767578125,0.2293548583984375,58353.825503125,0.0836339108728484,-0.1137659807104409,-0.4887582369534462,58353.828061125,2.325541932551777,-2.252140760799998,1.399881634413189,0.06112260371446609,-0.1023177728056908,-0.4627617597579956,0.07256610691547394,-0.1969281435012817,-0.1401125192642212,XArbitraryCorrectedZVertical,0.7437589168548584,-0.01960056088864803,0.0713018998503685,0.6643447875976562,-0.1321059018373489,-0.985429584980011,0.1071230173110962,-9.678346633911133,-59.18199920654297,-8.140176773071289,2
2017-12-04 17:16:55.561 -0800,101,BF2B89E4-20AD-4334-A98B-17808832B17C,1512436610.869942,49.27716275711904,-122.9074344817287,342.7374,-1,-1,10,65,-9999,58353.88460312501,-0.07720947265625,-1.021987915039062,0.1291351318359375,58353.855678125,-0.06114431441545625,0.0318551350628738,-0.3096257662353374,58353.86323612501,2.377883858901362,-2.306186695268898,1.410799795415514,-0.03351782262325287,0.03353426977992058,-0.2634612321853638,0.09407641738653183,-0.01156669855117798,0.08568847179412842,XArbitraryCorrectedZVertical,0.7437782287597656,-0.01525484025478363,0.06577927619218826,0.6650065183639526,-0.1181395202875137,-0.9872278571128845,0.1068775281310081,-9.036619186401367,-59.23789215087891,-8.075412750244141,2
2017-12-04 17:16:55.599 -0800,102,BF2B89E4-20AD-4334-A98B-17808832B17C,1512436610.869942,49.27716275711904,-122.9074344817287,342.7374,-1,-1,10,65,-9999,58353.91477912501,-0.1298370361328125,-0.9653167724609375,0.0496978759765625,58353.885853125,-0.0006878945095674672,0.06263328778091956,-0.06241437593931504,58353.898470125,2.392781674567511,-2.319596429866366,1.412569351846758,-0.01819426752626896,0.09498239308595657,-0.07618439197540283,-0.06431739777326584,0.004308164119720459,0.04418087005615234,XArbitraryCorrectedZVertical,0.7439374327659607,-0.013726438395679,0.06530268490314484,0.6649087071418762,-0.1154158785939217,-0.9875081777572632,0.1072626411914825,-8.920558929443359,-59.40431213378906,-8.326480865478516,2
2017-12-04 17:16:55.621 -0800,103,BF2B89E4-20AD-4334-A98B-17808832B17C,1512436610.869942,49.27716275711904,-122.9074344817287,342.7374,-1,-1,10,65,-9999,58353.94495412501,-0.13116455078125,-0.9975738525390625,0.1266937255859375,58353.916029125,0.03525918756821309,0.04628467448114112,-0.1332693746375272,58353.93364612501,2.41431380145286,-2.337938140500884,1.41511208847599,0.006157173775136471,0.04786384850740433,-0.1693742722272873,-0.04507202655076981,-0.0002229809761047363,-0.001233220100402832,XArbitraryCorrectedZVertical,0.7440992593765259,-0.0111832981929183,0.06501221656799316,0.6648036241531372,-0.1116204783320427,-0.9879056811332703,0.107617549598217,-8.641393661499023,-59.26908874511719,-8.087453842163086,2
2017-12-04 17:16:55.651 -0800,104,BF2B89E4-20AD-4334-A98B-17808832B17C,1512436610.869942,49.27716275711904,-122.9074344817287,342.7374,-1,-1,10,65,-9999,58353.97512912501,-0.06561279296875,-0.985443115234375,0.07025146484375,58353.946204125,-0.01483567148450441,0.008857673785603546,-0.2132808537956498,58353.93364612501,2.41431380145286,-2.337938140500884,1.41511208847599,0.006157173775136471,0.04786384850740433,-0.1693742722272873,-0.04507202655076981,-0.0002229809761047363,-0.001233220100402832,XArbitraryCorrectedZVertical,0.7440992593765259,-0.0111832981929183,0.06501221656799316,0.6648036241531372,-0.1116204783320427,-0.9879056811332703,0.107617549598217,-8.641393661499023,-59.26908874511719,-8.087453842163086,2
2017-12-04 17:16:55.681 -0800,105,BF2B89E4-20AD-4334-A98B-17808832B17C,1512436610.869942,49.27716275711904,-122.9074344817287,342.7374,-1,-1,10,65,-9999,58354.00530512501,-0.07269287109375,-0.9922943115234375,0.1395111083984375,58353.976379125,0.0334583580391015,0.04185317442724928,-0.06678302539148102,58353.968879125,2.441392772519092,-2.363438892548297,1.419030854288448,0.02035946398973465,0.04895297437906265,-0.08262003213167191,0.06184237450361252,0.02079331874847412,-0.03623056411743164,XArbitraryCorrectedZVertical,0.7441515326499939,-0.008637786842882633,0.06358683854341507,0.6649211645126343,-0.1061233803629875,-0.9885057210922241,0.1076722294092178,-8.453828811645508,-59.45714569091797,-8.292119979858398,2
2017-12-04 17:16:55.712 -0800,106,BF2B89E4-20AD-4334-A98B-17808832B17C,1512436610.869942,49.27716275711904,-122.9074344817287,342.7374,-1,-1,10,65,-9999,58354.03548012501,-0.108428955078125,-0.999237060546875,0.1158599853515625,58354.006555125,-0.01314669472117616,0.04720293242500045,-0.01727326283025394,58354.00405512501,2.451433345436239,-2.371687773844359,1.419337808064144,0.001491840928792953,0.04777804017066956,-0.02356766164302826,0.02688172459602356,-0.01697158813476562,0.02439320087432861,XArbitraryCorrectedZVertical,0.7443833351135254,-0.007570869289338589,0.0637829527258873,0.6646561026573181,-0.1050219833850861,-0.9885520935058594,0.1083277389407158,-8.149396896362305,-59.40862274169922,-8.212661743164062,2
2017-12-04 17:16:55.758 -0800,107,BF2B89E4-20AD-4334-A98B-17808832B17C,1512436610.869942,49.27716275711904,-122.9074344817287,342.7374,-1,-1,10,65,-9999,58354.06565612501,-0.1079864501953125,-0.997589111328125,0.0799407958984375,58354.036730125,0.01001082253760786,0.07911505913520195,-0.02393968767094029,58354.039289125,2.452457496157673,-2.37035584189583,1.418954502810396,0.01838472113013268,0.07856638729572296,-0.00768530648201704,-0.003639928996562958,-0.001587629318237305,0.0114293098449707,XArbitraryCorrectedZVertical,0.7444345355033875,-0.006837505847215652,0.06470859050750732,0.6645171642303467,-0.1054299026727676,-0.9884941577911377,0.1084590554237366,-8.293878555297852,-59.60868835449219,-8.224802017211914,2
2017-12-04 17:16:55.772 -0800,108,BF2B89E4-20AD-4334-A98B-17808832B17C,1512436610.869942,49.27716275711904,-122.9074344817287,342.7374,-1,-1,10,65,-9999,58354.09583112501,-0.1158599853515625,-0.9734649658203125,0.1632537841796875,58354.066906125,0.03144420930667458,0.0429328199331674,-0.03997910796816052,58354.07446412501,2.459295539428794,-2.37426096373905,1.419209973805897,0.0302441194653511,0.03357800468802452,-0.03544016182422638,-0.008633457124233246,-0.007835626602172852,-0.0268864631652832,XArbitraryCorrectedZVertical,0.7445225715637207,-0.005529498681426048,0.06546731293201447,0.6643564701080322,-0.1048308983445168,-0.9885327816009521,0.1086888685822487,-8.222803115844727,-59.37030792236328,-8.058559417724609,2
2017-12-04 17:16:55.802 -0800,109,BF2B89E4-20AD-4334-A98B-17808832B17C,1512436610.869942,49.27716275711904,-122.9074344817287,342.7374,-1,-1,10,65,-9999,58354.12600612501,-0.1063079833984375,-1.035140991210938,0.087860107421875,58354.097081125,-0.07095140512967305,0.05917384152490662,-0.08457800147928149,58354.109698125,2.4669921134775,-2.380896496518925,1.421440484298392,-0.006325805559754372,0.0708489865064621,-0.07400089502334595,-0.03233148902654648,0.04283750057220459,-0.04690182209014893,XArbitraryCorrectedZVertical,0.7442266345024109,-0.004347874317318201,0.06503820419311523,0.6647388339042664,-0.1025867313146591,-0.9888671636581421,0.1077843755483627,-7.970056533813477,-59.54306030273438,-8.24128532409668,2
2017-12-04 17:16:55.840 -0800,110,BF2B89E4-20AD-4334-A98B-17808832B17C,1512436610.869942,49.27716275711904,-122.9074344817287,342.7374,-1,-1,10,65,-9999,58354.15618212501,-0.1160125732421875,-0.942352294921875,0.108734130859375,58354.127256125,0.0004450142181522407,0.04397092012608029,-0.07413814369006186,58354.14487312501,2.477662595538098,-2.390324521804913,1.422803223543265,-0.06308158487081528,0.002585617825388908,-0.02308468520641327,0.03272973746061325,-0.02893638610839844,0.03777599334716797,XArbitraryCorrectedZVertical,0.7442250847816467,-0.003195377998054028,0.06476414203643799,0.6647739410400391,-0.1006466075778008,-0.9890689849853516,0.10776237398386,-7.853893280029297,-59.73715972900391,-8.076534271240234,2
2017-12-04 17:16:55.862 -0800,111,BF2B89E4-20AD-4334-A98B-17808832B17C,1512436610.869942,49.27716275711904,-122.9074344817287,342.7374,-1,-1,10,65,-9999,58354.18635712501,-0.084136962890625,-1.023834228515625,0.120269775390625,58354.157432125,-0.05022668552667642,-0.0121701135494441,-0.07260602711493928,58354.14487312501,2.477662595538098,-2.390324521804913,1.422803223543265,-0.06308158487081528,0.002585617825388908,-0.02308468520641327,0.03272973746061325,-0.02893638610839844,0.03777599334716797,XArbitraryCorrectedZVertical,0.7442250847816467,-0.003195377998054028,0.06476414203643799,0.6647739410400391,-0.1006466075778008,-0.9890689849853516,0.10776237398386,-7.853893280029297,-59.73715972900391,-8.076534271240234,2
2017-12-04 17:16:55.893 -0800,112,BF2B89E4-20AD-4334-A98B-17808832B17C,1512436610.869942,49.27716275711904,-122.9074344817287,342.7374,-1,-1,10,65,-9999,58354.21653212501,-0.096405029296875,-0.9917449951171875,0.1009674072265625,58354.187607125,-0.01880165097985041,0.05271461061702844,-0.0848003754303031,58354.180107125,2.483634531772782,-2.396301783787939,1.424698750230827,0.0248036365956068,0.02809211239218712,-0.07183721661567688,-0.01291952282190323,-0.05047869682312012,-0.04231727123260498,XArbitraryCorrectedZVertical,0.7439661622047424,-0.002525755437090993,0.06409506499767303,0.6651313900947571,-0.09872903674840927,-0.9893467426300049,0.106984056532383,-7.81157112121582,-59.48642730712891,-8.423797607421875,2
2017-12-04 17:16:55.923 -0800,113,BF2B89E4-20AD-4334-A98B-17808832B17C,1512436610.869942,49.27716275711904,-122.9074344817287,342.7374,-1,-1,10,65,-9999,58354.24670812501,0.1049041748046875,-0.9202117919921875,-0.2417144775390625,58354.217782125,-7.669903939428206e-05,-0.05925586688648107,-0.1037463697412358,58354.21528212501,2.496307794016197,-2.408363387664286,1.426816772863573,0.02093625441193581,-0.0487847812473774,-0.09831545501947403,-0.008585236966609955,0.01779001951217651,-0.02323603630065918,XArbitraryCorrectedZVertical,0.7438435554504395,-0.001342948409728706,0.06334798038005829,0.6653435230255127,-0.09602902084589005,-0.9896528124809265,0.1066100746393204,-7.694145202636719,-59.67244720458984,-8.19476318359375,2
2017-12-04 17:16:55.953 -0800,114,BF2B89E4-20AD-4334-A98B-17808832B17C,1512436610.869942,49.27716275711904,-122.9074344817287,342.7374,-1,-1,10,65,-9999,58354.27688312501,-0.094879150390625,-0.9986114501953125,0.126983642578125,58354.247958125,0.3037697413143622,-0.1552830642081222,0.1653159909827777,58354.250516125,2.514467570281438,-2.431225744119395,1.423286872704006,0.3508504331111908,-0.2205363363027573,0.1827093064785004,0.1922032088041306,0.07376539707183838,-0.3120626211166382,XArbitraryCorrectedZVertical,0.7454553246498108,-0.002963332459330559,0.0616472065448761,0.6636920571327209,-0.09584395587444305,-0.9891402125358582,0.1114248484373093,-7.461185455322266,-59.53153228759766,-7.966283798217773,2
2017-12-04 17:16:56.002 -0800,115,BF2B89E4-20AD-4334-A98B-17808832B17C,1512436610.869942,49.27716275711904,-122.9074344817287,342.7374,-1,-1,10,65,-9999,58354.30705812501,-0.24700927734375,-0.894256591796875,-0.007049560546875,58354.278133125,-0.05133003316629624,-0.1363053782802175,-0.02494982467240734,58354.28569112501,2.510205728655838,-2.43143357673643,1.421771145628892,-0.04614774882793427,-0.1423505544662476,-0.01616424694657326,0.02436425536870956,0.01911342144012451,0.001356363296508789,XArbitraryCorrectedZVertical,0.7458323836326599,-0.00495443819090724,0.06048580259084702,0.6633632779121399,-0.09679772704839706,-0.988916277885437,0.1125809848308563,-7.696805953979492,-59.77499389648438,-7.789192199707031,2
2017-12-04 17:16:56.013 -0800,116,BF2B89E4-20AD-4334-A98B-17808832B17C,1512436610.869942,49.27716275711904,-122.9074344817287,342.7374,-1,-1,10,65,-9999,58354.33723412501,0.0072784423828125,-1.127304077148438,0.2221221923828125,58354.308308125,0.1129145681099426,-0.1983847285544006,-0.2473791694446974,58354.320925125,2.550944229721568,-2.478727260725542,1.423874522167062,0.1603448092937469,-0.1472205519676208,-0.2207927852869034,-0.05328545719385147,-0.007584512233734131,-0.05321097373962402,XArbitraryCorrectedZVertical,0.746773362159729,-0.004980688448995352,0.05589691922068596,0.6627065539360046,-0.09008613228797913,-0.9892264008522034,0.1153905242681503,-7.286205291748047,-59.91033172607422,-7.42011833190918,2
2017-12-04 17:16:56.043 -0800,117,BF2B89E4-20AD-4334-A98B-17808832B17C,1512436610.869942,49.27716275711904,-122.9074344817287,342.7374,-1,-1,10,65,-9999,58354.36740912501,-0.1284332275390625,-0.9687652587890625,0.091461181640625,58354.338484125,-0.02515728492132452,-0.1032683323255666,-0.06915297244554254,58354.35610112501,2.572855855238057,-2.504049443592425,1.425155396889982,-0.04941704496741295,-0.1280824095010757,-0.01298869401216507,0.1206814646720886,-0.1137973070144653,0.1063016653060913,XArbitraryCorrectedZVertical,0.7471832036972046,-0.004923576954752207,0.05343835428357124,0.6624475121498108,-0.08637970685958862,-0.9894130825996399,0.1166139617562294,-7.06001091003418,-59.81280517578125,-7.600837707519531,2
2017-12-04 17:16:56.081 -0800,118,BF2B89E4-20AD-4334-A98B-17808832B17C,1512436610.869942,49.27716275711904,-122.9074344817287,342.7374,-1,-1,10,65,-9999,58354.39758412501,-0.217071533203125,-1.004669189453125,0.2068023681640625,58354.368659125,-0.005062935548349639,-0.05711095694453125,-0.02655118343587199,58354.35610112501,2.572855855238057,-2.504049443592425,1.425155396889982,-0.04941704496741295,-0.1280824095010757,-0.01298869401216507,0.1206814646720886,-0.1137973070144653,0.1063016653060913,XArbitraryCorrectedZVertical,0.7471832036972046,-0.004923576954752207,0.05343835428357124,0.6624475121498108,-0.08637970685958862,-0.9894130825996399,0.1166139617562294,-7.06001091003418,-59.81280517578125,-7.600837707519531,2
2017-12-04 17:16:56.104 -0800,119,BF2B89E4-20AD-4334-A98B-17808832B17C,1512436610.869942,49.27716275711904,-122.9074344817287,342.7374,-1,-1,10,65,-9999,58354.42776012501,0.17376708984375,-1.026824951171875,0.1019287109375,58354.398834125,-0.2210266578261453,0.2346532541757538,-0.3332424124660511,58354.391334125,2.579599258865774,-2.512090425095311,1.426203513271184,-0.01284479908645153,0.06975337862968445,-0.1082641258835793,-0.0889681875705719,-0.05087113380432129,-0.0008211135864257812,XArbitraryCorrectedZVertical,0.7471346259117126,-0.00485881557688117,0.05246089398860931,0.6625810265541077,-0.0848294198513031,-0.9895646572113037,0.1164675131440163,-7.098155975341797,-59.98253631591797,-7.600030899047852,2
2017-12-04 17:16:56.134 -0800,120,BF2B89E4-20AD-4334-A98B-17808832B17C,1512436610.869942,49.27716275711904,-122.9074344817287,342.7374,-1,-1,10,65,-9999,58354.45793512501,-0.260223388671875,-0.91937255859375,0.2736053466796875,58354.429010125,-0.168014039483137,0.3554068369543446,0.04550143880454882,58354.42651012501,2.60174514718948,-2.52295067848339,1.440819243563368,-0.3669165968894958,0.5038299560546875,-0.1758129447698593,0.05166425555944443,0.08505547046661377,0.1222274303436279,XArbitraryCorrectedZVertical,0.7434958815574646,0.002655782736837864,0.05292811989784241,0.6666370034217834,-0.07516279071569443,-0.9915648698806763,0.1055863574147224,-6.444957733154297,-59.95182800292969,-8.290285110473633,2
2017-12-04 17:16:56.164 -0800,121,BF2B89E4-20AD-4334-A98B-17808832B17C,1512436610.869942,49.27716275711904,-122.9074344817287,342.7374,-1,-1,10,65,-9999,58354.48811012501,-0.023956298828125,-1.00732421875,0.014892578125,58354.459185125,-0.1239112928830978,0.1864468426520114,-0.08911203323514139,58354.461743125,2.580596433160681,-2.496056215503935,1.440965000890163,-0.09940680861473083,0.1760422587394714,-0.04823875427246094,-0.2032250612974167,0.07517135143280029,0.1928993463516235,XArbitraryCorrectedZVertical,0.742759108543396,0.003794868243858218,0.05584017559885979,0.6672149300575256,-0.07788760960102081,-0.9915837645530701,0.1034109890460968,-6.546239852905273,-59.743896484375,-8.413793563842773,2
2017-12-04 17:16:56.194 -0800,122,BF2B89E4-20AD-4334-A98B-17808832B17C,1512436610.869942,49.27716275711904,-122.9074344817287,342.7374,-1,-1,10,65,-9999,58354.51828612501,0.0648193359375,-0.9420318603515625,-0.01568603515625,58354.489360125,-0.01186118686299491,0.1361983192043964,-0.07551233481254276,58354.49691912501,2.594622204311554,-2.504449241392443,1.444218216787234,-0.015251150354743,0.1367231160402298,-0.071000836789608,0.04003442823886871,-0.01147931814193726,-0.05926394462585449,XArbitraryCorrectedZVertical,0.7420835494995117,0.006848680321127176,0.0567638948559761,0.6678642630577087,-0.07509912550449371,-0.9919996857643127,0.1014697998762131,-6.420419692993164,-59.704345703125,-8.513088226318359,2
2017-12-04 17:16:56.241 -0800,123,BF2B89E4-20AD-4334-A98B-17808832B17C,1512436610.869942,49.27716275711904,-122.9074344817287,342.7374,-1,-1,10,65,-9999,58354.54846112501,-0.130462646484375,-0.9700469970703125,0.2410888671875,58354.519536125,0.1335362233787531,0.01233736006590108,0.1536774443869134,58354.532153125,2.592814802865373,-2.500632969113409,1.440970634534589,0.111282654106617,0.01058980543166399,0.2161744385957718,0.1516613066196442,0.0872417688369751,-0.04037940502166748,XArbitraryCorrectedZVertical,0.7428565621376038,0.006806935649365187,0.05821504816412926,0.6668797135353088,-0.07741204649209976,-0.9915844798088074,0.1037644147872925,-6.398336410522461,-59.84571838378906,-8.344221115112305,2
2017-12-04 17:16:56.255 -0800,124,BF2B89E4-20AD-4334-A98B-17808832B17C,1512436610.869942,49.27716275711904,-122.9074344817287,342.7374,-1,-1,10,65,-9999,58354.57863612501,-0.1234283447265625,-0.93646240234375,0.085693359375,58354.549711125,-0.1761625134704524,-0.01255467401085155,0.06413025062965309,58354.56732812501,2.548538522260343,-2.456383599741202,1.442288162035339,-0.270243376493454,0.03167842701077461,0.06461606919765472,0.05795248597860336,-0.00475156307220459,0.1348726749420166,XArbitraryCorrectedZVertical,0.7413396239280701,0.00542018935084343,0.05958564579486847,0.6684576272964478,-0.08110006898641586,-0.9917541742324829,0.09922762960195541,-6.705846786499023,-59.84757232666016,-8.590372085571289,2
2017-12-04 17:16:56.285 -0800,125,BF2B89E4-20AD-4334-A98B-17808832B17C,1512436610.869942,49.27716275711904,-122.9074344817287,342.7374,-1,-1,10,65,-9999,58354.60881212501,-0.0355682373046875,-0.8902435302734375,0.0429534912109375,58354.579886125,-0.2573021076663326,0.03337313688421897,0.06004815731077964,58354.56732812501,2.548538522260343,-2.456383599741202,1.442288162035339,-0.270243376493454,0.03167842701077461,0.06461606919765472,0.05795248597860336,-0.00475156307220459,0.1348726749420166,XArbitraryCorrectedZVertical,0.7413396239280701,0.00542018935084343,0.05958564579486847,0.6684576272964478,-0.08110006898641586,-0.9917541742324829,0.09922762960195541,-6.705846786499023,-59.84757232666016,-8.590372085571289,2
2017-12-04 17:16:56.317 -0800,126,BF2B89E4-20AD-4334-A98B-17808832B17C,1512436610.869942,49.27716275711904,-122.9074344817287,342.7374,-1,-1,10,65,-9999,58354.63898712501,-0.11993408203125,-0.9261932373046875,0.037261962890625,58354.640237125,-0.06453824690865323,-0.05409679122277956,0.2331296597161194,58354.602562125,2.486191784709631,-2.39175763235261,1.446784221331649,-0.1963063031435013,0.186666414141655,0.1783567517995834,0.04003239423036575,0.05567479133605957,-0.001223325729370117,XArbitraryCorrectedZVertical,0.7383995652198792,0.004996335133910179,0.06162547320127487,0.6715229749679565,-0.08429813385009766,-0.9923203587532043,0.09051775932312012,-6.932497024536133,-59.76757049560547,-9.230323791503906,2
2017-12-04 17:16:56.345 -0800,127,BF2B89E4-20AD-4334-A98B-17808832B17C,1512436610.869942,49.27716275711904,-122.9074344817287,342.7374,-1,-1,10,65,-9999,58354.66916212501,-0.195404052734375,-0.9873809814453125,0.0629425048828125,58354.640237125,-0.06453824690865323,-0.05409679122277956,0.2331296597161194,58354.63773712501,2.410383690540556,-2.313697033627628,1.44359966388482,-0.08300962299108505,-0.01846722699701786,0.2450804114341736,-0.008804313838481903,0.09098148345947266,-0.0604478120803833,XArbitraryCorrectedZVertical,0.736815869808197,0.002509945537894964,0.06569308042526245,0.6728897094726562,-0.0934295728802681,-0.9919214248657227,0.08580785244703293,-7.389318466186523,-59.67645263671875,-9.301734924316406,2
2017-12-04 17:16:56.376 -0800,128,BF2B89E4-20AD-4334-A98B-17808832B17C,1512436610.869942,49.27716275711904,-122.9074344817287,342.7374,-1,-1,10,65,-9999,58354.69933812501,-0.0760040283203125,-0.9433441162109375,0.102813720703125,58354.670412125,-0.000835699950066865,-0.01429531609932734,0.03007427924193781,58354.672971125,2.374706893876889,-2.279485314359468,1.439737501219624,-0.001961267553269863,-0.01597282476723194,0.06031423807144165,-0.1006583422422409,-0.001663684844970703,-0.01356613636016846,XArbitraryCorrectedZVertical,0.7365641593933105,-9.877534466795623e-05,0.06726066023111343,0.6730149388313293,-0.09921653568744659,-0.9914240837097168,0.08505354076623917,-7.738325119018555,-59.6158447265625,-9.551975250244141,2
2017-12-04 17:16:56.406 -0800,129,BF2B89E4-20AD-4334-A98B-17808832B17C,1512436610.869942,49.27716275711904,-122.9074344817287,342.7374,-1,-1,10,65,-9999,58354.72951312501,-0.123779296875,-0.9647064208984375,0.1095428466796875,58354.700588125,-0.01250913395621119,-0.00993731929152167,0.04190404080406979,58354.70814612501,2.370731537551076,-2.275652077621138,1.439255608134419,0.005502205342054367,-0.02363940142095089,0.05387619137763977,0.02101847529411316,0.04755908250808716,0.01265823841094971,XArbitraryCorrectedZVertical,0.7365400195121765,-0.0003975147265009582,0.06745821237564087,0.6730215549468994,-0.09990641474723816,-0.9913609623908997,0.08498271554708481,-7.790332794189453,-59.54351806640625,-9.537080764770508,2
2017-12-04 17:16:56.436 -0800,130,BF2B89E4-20AD-4334-A98B-17808832B17C,1512436610.869942,49.27716275711904,-122.9074344817287,342.7374,-1,-1,10,65,-9999,58354.75968812501,-0.1021728515625,-1.06536865234375,0.11578369140625,58354.730763125,-0.0200751746131263,0.01749483783294853,0.05469600246804739,58354.743380125,2.359609980097694,-2.264951038850488,1.437847313939846,-0.03396235778927803,-0.02811434864997864,0.02085139229893684,-0.04745402932167053,-0.03822839260101318,0.01590549945831299,XArbitraryCorrectedZVertical,0.7364778518676758,-0.001258371747098863,0.06801962107419968,0.6730321049690247,-0.101883739233017,-0.9911752939224243,0.08480241894721985,-8.083150863647461,-59.56918334960938,-9.054931640625,2
2017-12-04 17:16:56.480 -0800,131,BF2B89E4-20AD-4334-A98B-17808832B17C,1512436610.869942,49.27716275711904,-122.9074344817287,342.7374,-1,-1,10,65,-9999,58354.78986412501,0.0009002685546875,-0.94287109375,0.0651397705078125,58354.760938125,-0.09340904365398424,-0.03866537060242443,-0.0176282622035615,58354.77855512501,2.340276886763843,-2.247334911596304,1.439112830956271,-0.08256956934928894,-0.0271737203001976,0.09182676672935486,0.02311272174119949,-0.04775077104568481,-0.0005428791046142578,XArbitraryCorrectedZVertical,0.7355946898460388,-0.002106940839439631,0.06766079366207123,0.6740310788154602,-0.102382130920887,-0.9913422465324402,0.08220797032117844,-8.087869644165039,-59.5650634765625,-9.327239990234375,2
2017-12-04 17:16:56.496 -0800,132,BF2B89E4-20AD-4334-A98B-17808832B17C,1512436610.869942,49.27716275711904,-122.9074344817287,342.7374,-1,-1,10,65,-9999,58354.82003912501,-0.1827239990234375,-0.97467041015625,0.076385498046875,58354.791114125,-0.07120387280101256,-0.05298358988712645,0.1709842630469024,58354.77855512501,2.340276886763843,-2.247334911596304,1.439112830956271,-0.08256956934928894,-0.0271737203001976,0.09182676672935486,0.02311272174119949,-0.04775077104568481,-0.0005428791046142578,XArbitraryCorrectedZVertical,0.7355946898460388,-0.002106940839439631,0.06766079366207123,0.6740310788154602,-0.102382130920887,-0.9913422465324402,0.08220797032117844,-8.087869644165039,-59.5650634765625,-9.327239990234375,2
2017-12-04 17:16:56.526 -0800,133,BF2B89E4-20AD-4334-A98B-17808832B17C,1512436610.869942,49.27716275711904,-122.9074344817287,342.7374,-1,-1,10,65,-9999,58354.85021412501,-0.092803955078125,-1.016510009765625,0.050445556640625,58354.821289125,-0.0748854266919381,-0.1352486359596741,-0.05914428043680674,58354.813789125,2.298203476721576,-2.208216023422229,1.43627430198557,-0.09148534387350082,-0.1128751784563065,0.1136422008275986,-0.02934947609901428,0.008452117443084717,0.007448554039001465,XArbitraryCorrectedZVertical,0.73476642370224,-0.005149262491613626,0.06861472874879837,0.6748213768005371,-0.1077812612056732,-0.9909655451774597,0.07981642335653305,-8.52513313293457,-59.27162170410156,-9.439674377441406,2
2017-12-04 17:16:56.561 -0800,134,BF2B89E4-20AD-4334-A98B-17808832B17C,1512436610.869942,49.27716275711904,-122.9074344817287,342.7374,-1,-1,10,65,-9999,58354.88039012501,-0.039764404296875,-1.044113159179688,0.0548858642578125,58354.851464125,-0.02958825234299835,-0.07911452650298392,-0.0735141650466563,58354.84896412501,2.307989793337189,-2.222787150027294,1.440517764234324,0.005051372572779655,-0.1344349682331085,-0.2093852907419205,-0.09955859184265137,0.03872120380401611,-0.04147100448608398,XArbitraryCorrectedZVertical,0.7344276905059814,-0.005312682595103979,0.06541401892900467,0.6755061149597168,-0.1032612323760986,-0.9915257692337036,0.07882451266050339,-8.341907501220703,-59.62047576904297,-9.524463653564453,2
2017-12-04 17:16:56.587 -0800,135,BF2B89E4-20AD-4334-A98B-17808832B17C,1512436610.869942,49.27716275711904,-122.9074344817287,342.7374,-1,-1,10,65,-9999,58354.91056512501,-0.13580322265625,-0.993560791015625,0.069976806640625,58354.881640125,-0.1052151030824145,-0.2452521026820511,0.1322358018184675,58354.884198125,2.294264301834117,-2.213554829988298,1.441232300319829,-0.08631841838359833,-0.2424673140048981,0.1269913762807846,0.06693431735038757,-0.05022132396697998,-0.01209032535552979,XArbitraryCorrectedZVertical,0.733942985534668,-0.007036386057734489,0.0639713928103447,0.6761550903320312,-0.1034180894494057,-0.9916183352470398,0.07744363695383072,-8.483722686767578,-59.44828796386719,-9.48863410949707,2
2017-12-04 17:16:56.639 -0800,136,BF2B89E4-20AD-4334-A98B-17808832B17C,1512436610.869942,49.27716275711904,-122.9074344817287,342.7374,-1,-1,10,65,-9999,58354.94074012501,-0.2667083740234375,-0.8786163330078125,-0.0053253173828125,58354.911815125,-0.1085634955209711,-0.232072651079467,0.116121014062398,58354.91937312501,2.237449938983621,-2.165377021325556,1.438712650872094,-0.08866874128580093,-0.2194022834300995,0.1119024753570557,-0.04672525823116302,0.02524042129516602,-0.02318990230560303,XArbitraryCorrectedZVertical,0.7326226234436035,-0.01226862333714962,0.06310974806547165,0.6775918006896973,-0.109097495675087,-0.9912896156311035,0.0737728551030159,-8.876358032226562,-59.26712799072266,-9.786712646484375,2
2017-12-04 17:16:56.647 -0800,137,BF2B89E4-20AD-4334-A98B-17808832B17C,1512436610.869942,49.27716275711904,-122.9074344817287,342.7374,-1,-1,10,65,-9999,58354.97091612501,-0.0335540771484375,-1.132843017578125,0.1544036865234375,58354.941990125,0.04050028859348902,-0.1557523131921942,-0.207540143749875,58354.954607125,2.253683525433914,-2.187531563429872,1.441426677521686,0.04162534326314926,-0.1991430819034576,-0.2103783637285233,-0.06841825693845749,0.02683013677597046,-0.0131685733795166,XArbitraryCorrectedZVertical,0.7328965663909912,-0.01305693667382002,0.05972710624337196,0.6775875091552734,-0.1052420139312744,-0.9916434288024902,0.0746157243847847,-8.806249618530273,-59.23048400878906,-9.757175445556641,2
2017-12-04 17:16:56.677 -0800,138,BF2B89E4-20AD-4334-A98B-17808832B17C,1512436610.869942,49.27716275711904,-122.9074344817287,342.7374,-1,-1,10,65,-9999,58355.00109112501,-0.0868072509765625,-1.06768798828125,0.068206787109375,58354.972166125,-0.1368734305407314,-0.2869428242828055,-0.111853831047764,58354.98978312501,2.247827215987815,-2.190907241877364,1.446436037315817,-0.188345730304718,-0.3096765875816345,0.04305480420589447,0.1186918839812279,-0.143892228603363,0.07049500942230225,XArbitraryCorrectedZVertical,0.7319962382316589,-0.01493512652814388,0.05510043352842331,0.6789126992225647,-0.1009459123015404,-0.992277204990387,0.07208310067653656,-8.779409408569336,-59.12864685058594,-9.758907318115234,2
2017-12-04 17:16:56.719 -0800,139,BF2B89E4-20AD-4334-A98B-17808832B17C,1512436610.869942,49.27716275711904,-122.9074344817287,342.7374,-1,-1,10,65,-9999,58355.03126612501,-0.2082061767578125,-0.9334869384765625,0.0143585205078125,58355.002341125,-0.1680300184496775,-0.2903980094810744,0.05017102545989376,58354.98978312501,2.247827215987815,-2.190907241877364,1.446436037315817,-0.188345730304718,-0.3096765875816345,0.04305480420589447,0.1186918839812279,-0.143892228603363,0.07049500942230225,XArbitraryCorrectedZVertical,0.7319962382316589,-0.01493512652814388,0.05510043352842331,0.6789126992225647,-0.1009459123015404,-0.992277204990387,0.07208310067653656,-8.779409408569336,-59.12864685058594,-9.758907318115234,2
2017-12-04 17:16:56.737 -0800,140,BF2B89E4-20AD-4334-A98B-17808832B17C,1512436610.869942,49.27716275711904,-122.9074344817287,342.7374,-1,-1,10,65,-9999,58355.061442375,-0.1291961669921875,-0.9585723876953125,0.052764892578125,58355.032516125,-0.05935387121459598,-0.1538193908730147,-0.1802749668257528,58355.025016125,2.199692538961783,-2.152879618186309,1.447924786289564,-0.0987250953912735,-0.2424192726612091,-0.03052778542041779,-0.06873486936092377,0.03364425897598267,-0.05053377151489258,XArbitraryCorrectedZVertical,0.7302889823913574,-0.01917757280170918,0.05221380293369293,0.6808698177337646,-0.1023771911859512,-0.9924607872962952,0.06737955659627914,-8.763984680175781,-59.25772094726562,-9.879289627075195,2
2017-12-04 17:16:56.768 -0800,141,BF2B89E4-20AD-4334-A98B-17808832B17C,1512436610.869942,49.27716275711904,-122.9074344817287,342.7374,-1,-1,10,65,-9999,58355.091617375,0.001434326171875,-1.004180908203125,0.023681640625,58355.062692375,-0.05716555174687787,-0.1273603528108594,-0.3658349768347678,58355.060192375,2.228831048432811,-2.186319475215344,1.456735824302092,-0.06082810088992119,-0.1070487126708031,-0.3946271538734436,-0.1075752824544907,0.05008172988891602,0.007665395736694336,XArbitraryCorrectedZVertical,0.7297631502151489,-0.01740093156695366,0.0474100187420845,0.6818322539329529,-0.09292519837617874,-0.993502140045166,0.06571409851312637,-8.540750503540039,-59.40419769287109,-9.866889953613281,2
2017-12-04 17:16:56.800 -0800,142,BF2B89E4-20AD-4334-A98B-17808832B17C,1512436610.869942,49.27716275711904,-122.9074344817287,342.7374,-1,-1,10,65,-9999,58355.121792375,-0.121246337890625,-0.9597930908203125,0.095672607421875,58355.092867375,-0.06136242730873374,-0.3328493298891554,-0.1774213897177329,58355.095425375,2.271261985413518,-2.236760847057081,1.466018500854096,-0.04985209926962852,-0.3410660028457642,-0.1847339868545532,0.08481772989034653,-0.009298920631408691,-0.03409814834594727,XArbitraryCorrectedZVertical,0.7294068932533264,-0.01653621532022953,0.04089753702282906,0.6826562881469727,-0.08223899453878403,-0.9945158362388611,0.06461572647094727,-7.861272811889648,-59.38286590576172,-9.692661285400391,2
2017-12-04 17:16:56.828 -0800,143,BF2B89E4-20AD-4334-A98B-17808832B17C,1512436610.869942,49.27716275711904,-122.9074344817287,342.7374,-1,-1,10,65,-9999,58355.151968375,-0.055816650390625,-1.001251220703125,0.051483154296875,58355.123042375,-0.172584023913713,-0.2737921348199943,-0.2307213631423607,58355.130601375,2.271820719034499,-2.247361543979504,1.473361030100233,-0.1716981083154678,-0.2710616290569305,-0.2198032885789871,-0.04534822702407837,0.03856140375137329,0.03169643878936768,XArbitraryCorrectedZVertical,0.7281019687652588,-0.01794688776135445,0.03522117808461189,0.684328019618988,-0.07585233449935913,-0.9952569603919983,0.06090913712978363,-7.785350799560547,-59.37281036376953,-9.622079849243164,2
2017-12-04 17:16:56.882 -0800,144,BF2B89E4-20AD-4334-A98B-17808832B17C,1512436610.869942,49.27716275711904,-122.9074344817287,342.7374,-1,-1,10,65,-9999,58355.182143375,-0.0634918212890625,-1.021728515625,0.0310211181640625,58355.153218375,-0.1552628241838376,-0.2474438842591863,-0.1237123547496689,58355.165834375,2.257973440991011,-2.242140003596195,1.480757801208234,-0.1385186165571213,-0.2117389887571335,-0.08512883633375168,0.02392549812793732,-0.03424787521362305,-0.008126139640808105,XArbitraryCorrectedZVertical,0.7263597846031189,-0.01916701160371304,0.03035148233175278,0.6863766312599182,-0.07040376961231232,-0.9959492683410645,0.05593182146549225,-7.433172225952148,-59.52620697021484,-10.02409744262695,2
2017-12-04 17:16:56.888 -0800,145,BF2B89E4-20AD-4334-A98B-17808832B17C,1512436610.869942,49.27716275711904,-122.9074344817287,342.7374,-1,-1,10,65,-9999,58355.212318375,-0.0713348388671875,-1.1517333984375,0.1414642333984375,58355.183393375,-0.1121252071628431,-0.2682564881781556,-0.01985732803595782,58355.20101037501,2.232159128077207,-2.226880595626283,1.48428122315917,-0.0950469896197319,-0.4478165209293365,0.01635183766484261,0.08758632838726044,0.001310527324676514,-0.04753661155700684,XArbitraryCorrectedZVertical,0.725159764289856,-0.0223156213760376,0.02604460902512074,0.6877259016036987,-0.06846706569194794,-0.9962599277496338,0.05270934104919434,-7.298860549926758,-59.64237976074219,-10.25179481506348,2
2017-12-04 17:16:56.919 -0800,146,BF2B89E4-20AD-4334-A98B-17808832B17C,1512436610.869942,49.27716275711904,-122.9074344817287,342.7374,-1,-1,10,65,-9999,58355.242493375,-0.089630126953125,-0.9908905029296875,0.03662109375,58355.213568375,-0.1005332658860552,-0.1891962901614092,0.07196553687277522,58355.20101037501,2.232159128077207,-2.226880595626283,1.48428122315917,-0.0950469896197319,-0.4478165209293365,0.01635183766484261,0.08758632838726044,0.001310527324676514,-0.04753661155700684,XArbitraryCorrectedZVertical,0.725159764289856,-0.0223156213760376,0.02604460902512074,0.6877259016036987,-0.06846706569194794,-0.9962599277496338,0.05270934104919434,-7.298860549926758,-59.64237976074219,-10.25179481506348,2
2017-12-04 17:16:56.959 -0800,147,BF2B89E4-20AD-4334-A98B-17808832B17C,1512436610.869942,49.27716275711904,-122.9074344817287,342.7374,-1,-1,10,65,-9999,58355.272669375,-0.0323028564453125,-1.040374755859375,0.049591064453125,58355.243743375,-0.05751868690742238,-0.160487413610355,-0.0173222649943114,58355.236243375,2.190144310121704,-2.193720877976243,1.48395840590306,-0.04941216856241226,-0.237951323390007,0.06462284177541733,0.02304477989673615,0.02578818798065186,-0.0409548282623291,XArbitraryCorrectedZVertical,0.724300742149353,-0.0262225866317749,0.02369595691561699,0.6885777115821838,-0.07043857872486115,-0.9962319731712341,0.0505983792245388,-7.510992050170898,-59.74047088623047,-10.21533203125,2
2017-12-04 17:16:56.979 -0800,148,BF2B89E4-20AD-4334-A98B-17808832B17C,1512436610.869942,49.27716275711904,-122.9074344817287,342.7374,-1,-1,10,65,-9999,58355.302844375,-0.1010894775390625,-1.153854370117188,0.06072998046875,58355.273919375,-0.07105526841218614,-0.1649439473784937,0.04064436560846231,58355.27141937501,2.165272071530055,-2.174103882129998,1.484933196182225,-0.07682376354932785,-0.1347612291574478,0.03004860505461693,0.03153682500123978,-0.04390615224838257,0.02353560924530029,XArbitraryCorrectedZVertical,0.7235554456710815,-0.02818446233868599,0.02194521948695183,0.689341127872467,-0.07061458379030228,-0.9963160157203674,0.04865369200706482,-7.594552993774414,-59.43778991699219,-10.48060989379883,2
2017-12-04 17:16:57.009 -0800,149,BF2B89E4-20AD-4334-A98B-17808832B17C,1512436610.869942,49.27716275711904,-122.9074344817287,342.7374,-1,-1,10,65,-9999,58355.333019375,-0.1087799072265625,-1.043899536132812,0.0303497314453125,58355.304094375,0.006244580124017797,-0.1241059699587826,0.02618233562489601,58355.306653375,2.137423769016112,-2.15178879473464,1.484583254423555,-0.003489321563392878,-0.1235971823334694,0.03608983382582664,-0.02624699473381042,-0.1521515846252441,0.006682634353637695,XArbitraryCorrectedZVertical,0.7229718565940857,-0.0306637417525053,0.02051568403840065,0.6898913979530334,-0.07197383046150208,-0.9962859749794006,0.04725714027881622,-7.930614471435547,-59.427490234375,-10.35334777832031,2
2017-12-04 17:16:57.039 -0800,150,BF2B89E4-20AD-4334-A98B-17808832B17C,1512436610.869942,49.27716275711904,-122.9074344817287,342.7374,-1,-1,10,65,-9999,58355.363195375,-0.160308837890625,-1.044631958007812,0.0703887939453125,58355.334269375,0.1217884871781956,-0.09853269927518769,-0.01948794759276383,58355.34182837501,2.16819417667752,-2.186501426237296,1.482753753012059,0.1226673200726509,-0.09360409528017044,-0.00857484620064497,-0.02252295613288879,-0.03425347805023193,-0.01083028316497803,XArbitraryCorrectedZVertical,0.7241290807723999,-0.03203101828694344,0.01909861154854298,0.6886550188064575,-0.07177636027336121,-0.9961267709732056,0.05077782273292542,-8.026571273803711,-59.53296661376953,-10.43461990356445,2
2017-12-04 17:16:57.069 -0800,151,BF2B89E4-20AD-4334-A98B-17808832B17C,1512436610.869942,49.27716275711904,-122.9074344817287,342.7374,-1,-1,10,65,-9999,58355.393370375,0.0072174072265625,-1.054351806640625,0.01971435546875,58355.364445375,0.11501180746838,0.0102675512666915,-0.187104377125152,58355.377062375,2.238243177340942,-2.257212932007729,1.483692777845362,0.1283906549215317,0.04488790035247803,-0.1903041452169418,-0.03887031972408295,-0.08959132432937622,0.02150094509124756,XArbitraryCorrectedZVertical,0.7256873250007629,-0.03069574758410454,0.01729509234428406,0.6871214509010315,-0.06728506833314896,-0.9962089061737061,0.05512864515185356,-7.437187194824219,-59.66701507568359,-9.851917266845703,2
2017-12-04 17:16:57.119 -0800,152,BF2B89E4-20AD-4334-A98B-17808832B17C,1512436610.869942,49.27716275711904,-122.9074344817287,342.7374,-1,-1,10,65,-9999,58355.423545375,-0.2606658935546875,-1.002975463867188,0.079315185546875,58355.394620375,0.1685229695674511,-0.03804751722952605,0.056161540015918,58355.41223737501,2.277688939386896,-2.295856867173024,1.480390794444605,0.07405503839254379,-0.002668914850801229,0.192825511097908,0.2835892140865326,0.1759852170944214,0.001621246337890625,XArbitraryCorrectedZVertical,0.7273267507553101,-0.03052238933742046,0.01768904738128185,0.6853838562965393,-0.06757053732872009,-0.9959161877632141,0.05987163633108139,-7.487165451049805,-59.67282867431641,-9.945320129394531,2
2017-12-04 17:16:57.130 -0800,153,BF2B89E4-20AD-4334-A98B-17808832B17C,1512436610.869942,49.27716275711904,-122.9074344817287,342.7374,-1,-1,10,65,-9999,58355.453721375,-0.0851898193359375,-0.9231414794921875,0.043304443359375,58355.424795375,-0.005001416527168809,0.07470166857672263,-0.05815331819518826,58355.41223737501,2.277688939386896,-2.295856867173024,1.480390794444605,0.07405503839254379,-0.002668914850801229,0.192825511097908,0.2835892140865326,0.1759852170944214,0.001621246337890625,XArbitraryCorrectedZVertical,0.7273267507553101,-0.03052238933742046,0.01768904738128185,0.6853838562965393,-0.06757053732872009,-0.9959161877632141,0.05987163633108139,-7.487165451049805,-59.67282867431641,-9.945320129394531,2
2017-12-04 17:16:57.160 -0800,154,BF2B89E4-20AD-4334-A98B-17808832B17C,1512436610.869942,49.27716275711904,-122.9074344817287,342.7374,-1,-1,10,65,-9999,58355.483896375,-0.0814361572265625,-1.014144897460938,0.0556640625,58355.454971375,-0.04782584580396999,0.1735219892496389,-0.2159120569526481,58355.447471375,2.288724775562252,-2.303756637723419,1.4814047806589,-0.03409067541360855,0.193835124373436,-0.1601011008024216,-0.03851049393415451,0.06645703315734863,0.01937103271484375,XArbitraryCorrectedZVertical,0.7273426055908203,-0.02894840203225613,0.01832997798919678,0.6854187250137329,-0.06634790450334549,-0.9960072636604309,0.05973055213689804,-7.320184707641602,-59.46540832519531,-9.833154678344727,2
2017-12-04 17:16:57.198 -0800,155,BF2B89E4-20AD-4334-A98B-17808832B17C,1512436610.869942,49.27716275711904,-122.9074344817287,342.7374,-1,-1,10,65,-9999,58355.514071375,0.01226806640625,-0.9585418701171875,0.04412841796875,58355.485146375,-0.01143854319799934,0.2911389008963344,-0.2304800807475996,58355.48264637501,2.33411389242733,-2.340965956661004,1.487115453435249,-0.008329069241881371,0.2938657999038696,-0.1992028504610062,-0.007158778607845306,-0.01921570301055908,0.01114082336425781,XArbitraryCorrectedZVertical,0.7270040512084961,-0.02372094243764877,0.01888005249202251,0.68596351146698,-0.05999515205621719,-0.9965007901191711,0.05819514766335487,-7.013998031616211,-59.52645874023438,-9.938470840454102,2
2017-12-04 17:16:57.220 -0800,156,BF2B89E4-20AD-4334-A98B-17808832B17C,1512436610.869942,49.27716275711904,-122.9074344817287,342.7374,-1,-1,10,65,-9999,58355.544246375,-0.1258392333984375,-1.009567260742188,0.0468597412109375,58355.515321375,-0.03396329338178052,0.2152569193244886,-0.1464648052066518,58355.517880375,2.384509203349357,-2.380820268997494,1.491915504879029,-0.03002636134624481,0.2410603910684586,-0.1345760524272919,0.06035831570625305,0.04254484176635742,-0.0174022912979126,XArbitraryCorrectedZVertical,0.7267858982086182,-0.01788339018821716,0.02048983238637447,0.6863254904747009,-0.05433109402656555,-0.9968905448913574,0.05707511678338051,-6.571407318115234,-59.90396881103516,-9.881416320800781,2
2017-12-04 17:16:57.250 -0800,157,BF2B89E4-20AD-4334-A98B-17808832B17C,1512436610.869942,49.27716275711904,-122.9074344817287,342.7374,-1,-1,10,65,-9999,58355.574422375,0.0955963134765625,-1.04931640625,0.050506591796875,58355.545496375,0.007568437501896187,0.2846168193867303,-0.2702067210444206,58355.55305537501,2.447920753134968,-2.437021809671738,1.496509766581274,0.007521046325564384,0.2609937489032745,-0.2709674537181854,-0.08577743917703629,-0.0087394118309021,0.003496050834655762,XArbitraryCorrectedZVertical,0.7267072200775146,-0.01304802019149065,0.02074939198791981,0.6865099668502808,-0.04807265847921371,-0.9972420334815979,0.05654726922512054,-6.142425537109375,-59.74398803710938,-10.08102607727051,2
2017-12-04 17:16:57.281 -0800,158,BF2B89E4-20AD-4334-A98B-17808832B17C,1512436610.869942,49.27716275711904,-122.9074344817287,342.7374,-1,-1,10,65,-9999,58355.604597375,-0.056854248046875,-0.9748992919921875,0.0858917236328125,58355.575672375,-0.001875930671851815,0.08898420150281759,-0.051792357931534,58355.588289375,2.493023266089976,-2.476517764544886,1.499563663995902,-0.01106943469494581,0.0257797297090292,-0.01483793742954731,0.1036451905965805,-0.04555046558380127,-0.009724259376525879,XArbitraryCorrectedZVertical,0.7265748381614685,-0.009542876854538918,0.02120650187134743,0.6866937279701233,-0.04392229020595551,-0.9974640011787415,0.0560041256248951,-5.996723175048828,-59.88371276855469,-10.04352188110352,2
2017-12-04 17:16:57.311 -0800,159,BF2B89E4-20AD-4334-A98B-17808832B17C,1512436610.869942,49.27716275711904,-122.9074344817287,342.7374,-1,-1,10,65,-9999,58355.634772375,-0.068878173828125,-0.9403076171875,0.10577392578125,58355.605847375,-0.03986592362183215,0.06032113132251276,-0.02791711875897363,58355.62346437501,2.484045183954054,-2.465330527766308,1.500704484711356,-0.04689804092049599,0.153081402182579,0.007343673147261143,-0.01764612272381783,0.002320587635040283,0.02149200439453125,XArbitraryCorrectedZVertical,0.7261084914207458,-0.008712371811270714,0.0219372846186161,0.6871747374534607,-0.04383154213428497,-0.9975445866584778,0.05461889505386353,-5.933624267578125,-59.72849273681641,-10.14102363586426,2
2017-12-04 17:16:57.356 -0800,160,BF2B89E4-20AD-4334-A98B-17808832B17C,1512436610.869942,49.27716275711904,-122.9074344817287,342.7374,-1,-1,10,65,-9999,58355.664947375,-0.0350494384765625,-1.036834716796875,0.033721923828125,58355.636022375,-0.111078584854442,0.1886657884722654,-0.06988667332585936,58355.62346437501,2.484045183954054,-2.465330527766308,1.500704484711356,-0.04689804092049599,0.153081402182579,0.007343673147261143,-0.01764612272381783,0.002320587635040283,0.02149200439453125,XArbitraryCorrectedZVertical,0.7261084914207458,-0.008712371811270714,0.0219372846186161,0.6871747374534607,-0.04383154213428497,-0.9975445866584778,0.05461889505386353,-5.933624267578125,-59.72849273681641,-10.14102363586426,2
2017-12-04 17:16:57.371 -0800,161,BF2B89E4-20AD-4334-A98B-17808832B17C,1512436610.869942,49.27716275711904,-122.9074344817287,342.7374,-1,-1,10,65,-9999,58355.695123375,0.0776824951171875,-1.092636108398438,0.010284423828125,58355.666197375,-0.04996143468210452,0.1053525221946626,-0.07949855433217336,58355.658697375,2.476153855597145,-2.450898145455183,1.504937920763435,-0.1177817955613136,0.194688081741333,-0.08788511157035828,0.009546902030706406,0.01008492708206177,-0.0007238388061523438,XArbitraryCorrectedZVertical,0.7247973680496216,-0.005679199937731028,0.02352752350270748,0.6885368227958679,-0.04192605242133141,-0.9978321194648743,0.05072695761919022,-5.662681579589844,-59.58525085449219,-10.51171684265137,2
2017-12-04 17:16:57.402 -0800,162,BF2B89E4-20AD-4334-A98B-17808832B17C,1512436617.264744,49.27714571663818,-122.9075448016039,343.0238,-1,-1,10,65,-9999,58355.725298375,-0.19464111328125,-0.7412109375,0.313934326171875,58355.696373375,0.2082035371774138,-0.1973636725924642,0.3738913054483666,58355.69387337501,2.487291572068147,-2.458634365115546,1.504689601237658,0.1032411232590675,0.04905247315764427,0.1367426663637161,0.07553057372570038,-0.1025108098983765,-0.05873143672943115,XArbitraryCorrectedZVertical,0.7249832153320312,-0.004359320737421513,0.02461120672523975,0.6883127093315125,-0.04168657585978508,-0.997815728187561,0.05123933404684067,-5.712728500366211,-59.76596069335938,-10.0015869140625,2
2017-12-04 17:16:57.443 -0800,163,BF2B89E4-20AD-4334-A98B-17808832B17C,1512436617.264744,49.27714571663818,-122.9075448016039,343.0238,-1,-1,10,65,-9999,58355.755473375,-0.0247955322265625,-1.2137451171875,0.023773193359375,58355.726548375,-0.07508915851532916,0.01293497341451486,0.1117880509688391,58355.729106375,2.35445673159617,-2.329065391302506,1.490621857871235,-0.06988856941461563,0.08042307943105698,0.2296296060085297,-0.2463904321193695,0.3953931331634521,0.1539732217788696,XArbitraryCorrectedZVertical,0.7262280583381653,-0.01135493442416191,0.02929438278079033,0.6867353916168213,-0.05814447626471519,-0.9967877268791199,0.05507225543260574,-6.488616943359375,-59.86399078369141,-10.16446113586426,2
2017-12-04 17:16:57.462 -0800,164,BF2B89E4-20AD-4334-A98B-17808832B17C,1512436617.264744,49.27714571663818,-122.9075448016039,343.0238,-1,-1,10,65,-9999,58355.785649375,-0.0799713134765625,-0.98956298828125,0.1030731201171875,58355.756723375,0.03694257169325217,0.1879153096770811,-0.02556501488421565,58355.76428237501,2.360889395685671,-2.330544315696825,1.491262355877301,0.04007493332028389,0.1664945781230927,-0.02420839294791222,0.06756392121315002,-0.2123744487762451,-0.0341341495513916,XArbitraryCorrectedZVertical,0.7261345982551575,-0.009364981204271317,0.03080436214804649,0.6867981553077698,-0.05759992823004723,-0.9968388676643372,0.05471831560134888,-6.629339218139648,-59.59352874755859,-10.09829521179199,2
