loggingTime(txt),loggingSample(N),identifierForVendor(txt),locationTimestamp_since1970(s),locationLatitude(WGS84),locationLongitude(WGS84),locationAltitude(m),locationSpeed(m/s),locationCourse(°),locationVerticalAccuracy(m),locationHorizontalAccuracy(m),locationFloor(Z),accelerometerTimestamp_sinceReboot(s),accelerometerAccelerationX(G),accelerometerAccelerationY(G),accelerometerAccelerationZ(G),gyroTimestamp_sinceReboot(s),gyroRotationX(rad/s),gyroRotationY(rad/s),gyroRotationZ(rad/s),motionTimestamp_sinceReboot(s),motionYaw(rad),motionRoll(rad),motionPitch(rad),motionRotationRateX(rad/s),motionRotationRateY(rad/s),motionRotationRateZ(rad/s),motionUserAccelerationX(G),motionUserAccelerationY(G),motionUserAccelerationZ(G),motionAttitudeReferenceFrame(txt),motionQuaternionX(R),motionQuaternionY(R),motionQuaternionZ(R),motionQuaternionW(R),motionGravityX(G),motionGravityY(G),motionGravityZ(G),motionMagneticFieldX(µT),motionMagneticFieldY(µT),motionMagneticFieldZ(µT),motionMagneticFieldCalibrationAccuracy(Z)
2017-12-04 17:17:01.277 -0800,1,C4D50155-580C-4885-BACB-A13DEF47355A,1512436614.715099,49.27715284201003,-122.9075176818931,343.1285,-1,-1,10,65,-9999,117667.6692925417,-0.0096282958984375,-1.013931274414062,-0.0105133056640625,117667.6603205417,-0.1546995656132858,0.3228422357770737,0.03301574066593033,117667.6382565417,1.010213515088236,2.910506930154379,1.547311882860164,-0.09778600186109543,0.2876555621623993,0.03937777504324913,-0.01047602295875549,0.002867579460144043,-0.01378476619720459,XArbitraryCorrectedZVertical,-0.2733578383922577,0.6608383655548096,0.6473264098167419,-0.2636983096599579,0.005379576236009598,-0.999724268913269,0.02286370657384396,-14.22789764404297,-62.24081802368164,-13.70779418945312,2
2017-12-04 17:17:01.309 -0800,2,C4D50155-580C-4885-BACB-A13DEF47355A,1512436621.214716,49.27715556849828,-122.907443947797,343.0692,-1,-1,10,65,-9999,117667.6993525417,-0.01300048828125,-0.9999542236328125,0.0088348388671875,117667.6903805417,-0.07608811024021789,-0.06031021236204344,0.0005752427954571154,117667.6733205417,0.9813615036134347,2.951765806581802,1.552502064948438,-0.09466053545475006,0.1168792694807053,-0.003518347162753344,-0.007096350193023682,-0.0111842155456543,-0.03588211536407471,XArbitraryCorrectedZVertical,-0.276166170835495,0.6578060388565063,0.6470323801040649,-0.2690210938453674,0.003449509385973215,-0.9998326897621155,0.01795307733118534,-14.33161926269531,-61.88898849487305,-14.10568237304688,2
2017-12-04 17:17:01.311 -0800,3,C4D50155-580C-4885-BACB-A13DEF47355A,1512436621.214716,49.27715556849828,-122.907443947797,343.0692,-1,-1,10,65,-9999,117667.7294125417,-0.0065765380859375,-0.9896087646484375,0.011993408203125,117667.7204405417,-0.1206478552833147,0.0117565246321548,0.1179759057616382,117667.7084165417,0.9920852294459978,2.939646902718627,1.554919002184746,-0.1030751690268517,0.00433137733489275,0.06943875551223755,-0.0168682336807251,-0.001331508159637451,-0.008671164512634277,XArbitraryCorrectedZVertical,-0.2752954661846161,0.6572527885437012,0.6479776501655579,-0.2689904868602753,0.003181123407557607,-0.9998739361763,0.01553764380514622,-14.45840263366699,-61.8382568359375,-14.23529052734375,2
2017-12-04 17:17:01.312 -0800,4,C4D50155-580C-4885-BACB-A13DEF47355A,1512436621.214716,49.27715556849828,-122.907443947797,343.0692,-1,-1,10,65,-9999,117667.7594725417,0.0252838134765625,-0.9973907470703125,0.0233612060546875,117667.7504995417,-0.01372380172939633,-0.06261677618216106,0.03043726809851561,117667.7434505417,0.7418712786401069,-3.093734668443601,1.558666652644513,-0.06194025278091431,-0.05625047534704208,0.07749748229980469,0.02610594034194946,0.002367854118347168,0.009797930717468262,XArbitraryCorrectedZVertical,-0.2734695971012115,0.6566950082778931,0.6486606597900391,-0.2705639004707336,-0.0005779871135018766,-0.9999264478683472,0.01206790842115879,-14.47723579406738,-61.74710845947266,-14.30398559570312,2
2017-12-04 17:17:01.313 -0800,5,C4D50155-580C-4885-BACB-A13DEF47355A,1512436621.214716,49.27715556849828,-122.907443947797,343.0692,-1,-1,10,65,-9999,117667.7895315417,0.0085296630859375,-0.9956207275390625,0.013824462890625,117667.7805595417,0.007130613818687161,-0.02867825019851828,0.009634251559470652,117667.7785455417,0.6620575330329266,-3.015849242388426,1.558595051849153,0.01302660815417767,-0.03297201544046402,0.01406512781977654,0.01405417919158936,-0.001127302646636963,0.003059267997741699,XArbitraryCorrectedZVertical,-0.2725224196910858,0.657092273235321,0.6487915515899658,-0.2702414989471436,-0.001526714651845396,-0.9999255537986755,0.01207744982093573,-14.68629264831543,-62.04050827026367,-14.51202392578125,2
2017-12-04 17:17:01.356 -0800,6,C4D50155-580C-4885-BACB-A13DEF47355A,1512436621.214716,49.27715556849828,-122.907443947797,343.0692,-1,-1,10,65,-9999,117667.8195915417,-0.00408935546875,-1.018157958984375,0.0263824462890625,117667.8106195417,0.0611224764945176,-0.1327676350881563,0.002936401417921368,117667.8135795417,0.6573707051690192,-3.014139833715471,1.557067348362946,0.07132100313901901,-0.1381302326917648,0.005317037925124168,-0.0006859898567199707,-0.01874053478240967,0.01359653472900391,XArbitraryCorrectedZVertical,-0.271677553653717,0.6580129265785217,0.6486696004867554,-0.269142210483551,-0.001740166801027954,-0.9999057650566101,0.01357940956950188,-14.81392478942871,-61.97200775146484,-14.24655151367188,2
2017-12-04 17:17:01.367 -0800,7,C4D50155-580C-4885-BACB-A13DEF47355A,1512436621.214716,49.27715556849828,-122.907443947797,343.0692,-1,-1,10,65,-9999,117667.8496515417,-0.007537841796875,-1.012283325195312,0.041900634765625,117667.8406795417,0.03498328407928087,0.002025334009005261,0.01235014323913346,117667.8135795417,0.6573707051690192,-3.014139833715471,1.557067348362946,0.07132100313901901,-0.1381302326917648,0.005317037925124168,-0.0006859898567199707,-0.01874053478240967,0.01359653472900391,XArbitraryCorrectedZVertical,-0.271677553653717,0.6580129265785217,0.6486696004867554,-0.269142210483551,-0.001740166801027954,-0.9999057650566101,0.01357940956950188,-14.81392478942871,-61.97200775146484,-14.24655151367188,2
2017-12-04 17:17:01.397 -0800,8,C4D50155-580C-4885-BACB-A13DEF47355A,1512436621.214716,49.27715556849828,-122.907443947797,343.0692,-1,-1,10,65,-9999,117667.8797115417,-0.005889892578125,-0.9979248046875,-0.002471923828125,117667.8707395417,-0.01228649368908057,0.1867286050953418,0.02468430751172644,117667.8486745417,0.6600161582090174,-3.019860109274617,1.554642256458604,0.03882430493831635,0.02743089944124222,0.02106800861656666,-0.003567039966583252,-0.00611191987991333,0.01409673690795898,XArbitraryCorrectedZVertical,-0.2709181010723114,0.6592421531677246,0.6482580304145813,-0.2678881287574768,-0.001956624444574118,-0.9998695254325867,0.01599366776645184,-14.82473945617676,-61.96112442016602,-14.02731323242188,2
2017-12-04 17:17:01.433 -0800,9,C4D50155-580C-4885-BACB-A13DEF47355A,1512436621.214716,49.27715556849828,-122.907443947797,343.0692,-1,-1,10,65,-9999,117667.9097715417,-0.0043182373046875,-1.006439208984375,0.0078887939453125,117667.9007995417,0.03663710711622008,0.04343083105701222,-0.006662696415160238,117667.8837395417,0.5985951874384423,-2.953220587779859,1.554149682165735,0.01157725509256124,0.1399630457162857,0.02615470252931118,-0.00238490104675293,0.001066863536834717,-0.01317703723907471,XArbitraryCorrectedZVertical,-0.2723022401332855,0.6587898135185242,0.6472979187965393,-0.2699112892150879,-0.003108269069343805,-0.9998614192008972,0.01630505733191967,-14.77419853210449,-61.86024475097656,-14.14556884765625,2
2017-12-04 17:17:01.457 -0800,10,C4D50155-580C-4885-BACB-A13DEF47355A,1512436621.214716,49.27715556849828,-122.907443947797,343.0692,-1,-1,10,65,-9999,117667.9398615417,-0.0090484619140625,-0.9998321533203125,0.0260009765625,117667.9308585417,0.01707299311627998,-0.0530661478809189,-0.01470171448167343,117667.9188345417,0.6092519323158713,-2.962326625871622,1.552727820145775,0.03604177385568619,-0.02131103724241257,-0.01419661566615105,-0.001882314682006836,-0.009394824504852295,-0.01276242733001709,XArbitraryCorrectedZVertical,-0.2729707658290863,0.6590564250946045,0.6466028094291687,-0.2702510952949524,-0.003214113414287567,-0.9998367428779602,0.01773682050406933,-15.08761978149414,-62.08663558959961,-14.069091796875,2
2017-12-04 17:17:01.487 -0800,11,C4D50155-580C-4885-BACB-A13DEF47355A,1512436621.214716,49.27715556849828,-122.907443947797,343.0692,-1,-1,10,65,-9999,117667.9699215417,0.00787353515625,-1.004974365234375,0.0300140380859375,117667.9609185417,0.0001771002124902694,-0.01695528139609848,-0.01386335137051648,117667.9538695417,0.632911300035579,-2.987814059281368,1.551908229884911,0.01449181884527206,-0.04248399287462234,-0.009327657520771027,0.006672501564025879,0.01004499197006226,0.01580524444580078,XArbitraryCorrectedZVertical,-0.2725941836833954,0.6595523953437805,0.646598756313324,-0.269430011510849,-0.002888298593461514,-0.9998216032981873,0.01863390207290649,-14.86338424682617,-62.0600471496582,-13.93838500976562,2
2017-12-04 17:17:01.517 -0800,12,C4D50155-580C-4885-BACB-A13DEF47355A,1512436621.214716,49.27715556849828,-122.907443947797,343.0692,-1,-1,10,65,-9999,117667.9999815417,0.004791259765625,-1.007186889648438,0.0081329345703125,117667.9909785417,-0.002974218305400493,-0.0349739630154656,-0.02140968463536501,117667.9889645417,0.6535179495764609,-3.009458721640624,1.551552623738205,0.009228870272636414,-0.04141193628311157,-0.01261349301785231,0.007627218961715698,-0.02084553241729736,-0.01141226291656494,XArbitraryCorrectedZVertical,-0.2724241614341736,0.6597771644592285,0.6466522216796875,-0.268922746181488,-0.002530795522034168,-0.9998148679733276,0.01904166117310524,-15.09449005126953,-61.94438552856445,-14.06890869140625,2
2017-12-04 17:17:01.547 -0800,13,C4D50155-580C-4885-BACB-A13DEF47355A,1512436621.214716,49.27715556849828,-122.907443947797,343.0692,-1,-1,10,65,-9999,117668.0300405417,-0.0069580078125,-0.9989776611328125,0.0128936767578125,117668.0210385417,-0.04752331070413698,0.01605326873488864,-0.0210464294626782,117668.0240285417,0.6879480219297196,-3.044255931121739,1.551827819175451,-0.03092100098729134,0.008565920405089855,-0.01961502805352211,0.003106474876403809,0.005145430564880371,-0.005949974060058594,XArbitraryCorrectedZVertical,-0.2725030481815338,0.6596695780754089,0.6468602418899536,-0.2686062753200531,-0.001840001321397722,-0.9998201131820679,0.01884372718632221,-14.88839721679688,-62.0813102722168,-13.93887329101562,2
2017-12-04 17:17:01.586 -0800,14,C4D50155-580C-4885-BACB-A13DEF47355A,1512436621.214716,49.27715556849828,-122.907443947797,343.0692,-1,-1,10,65,-9999,117668.0601005417,0.01007080078125,-1.000030517578125,0.0331268310546875,117668.0510985417,-0.04133811907242795,0.02980956102958394,-0.006009689315872809,117668.0240285417,0.6879480219297196,-3.044255931121739,1.551827819175451,-0.03092100098729134,0.008565920405089855,-0.01961502805352211,0.003106474876403809,0.005145430564880371,-0.005949974060058594,XArbitraryCorrectedZVertical,-0.2725030481815338,0.6596695780754089,0.6468602418899536,-0.2686062753200531,-0.001840001321397722,-0.9998201131820679,0.01884372718632221,-14.88839721679688,-62.0813102722168,-13.93887329101562,2
2017-12-04 17:17:01.607 -0800,15,C4D50155-580C-4885-BACB-A13DEF47355A,1512436621.214716,49.27715556849828,-122.907443947797,343.0692,-1,-1,10,65,-9999,117668.0901605417,-0.0110321044921875,-0.9991912841796875,0.006561279296875,117668.0811575417,0.004331365196904873,0.2068916640244407,-0.001547829225554053,117668.0591245417,0.6864526397584753,-3.042384779263544,1.552908959856071,-0.02361489832401276,0.02761496230959892,-0.005609519779682159,0.002179592847824097,0.002876520156860352,0.006670594215393066,XArbitraryCorrectedZVertical,-0.2725061178207397,0.6592569947242737,0.6471768021583557,-0.2688533365726471,-0.001767609617672861,-0.9998400211334229,0.01775873824954033,-14.87000846862793,-62.23544311523438,-14.04669189453125,2
2017-12-04 17:17:01.637 -0800,16,C4D50155-580C-4885-BACB-A13DEF47355A,1512436621.214716,49.27715556849828,-122.907443947797,343.0692,-1,-1,10,65,-9999,117668.1202205417,0.01226806640625,-1.000381469726562,0.02496337890625,117668.1112175417,-0.03271586872718741,0.1400963880919454,0.01994015234585929,117668.0941585417,0.6934926900323978,-3.044089355825466,1.552388019933167,0.0005586929619312286,0.1548929959535599,-0.006981946062296629,-0.005474656820297241,0.00213468074798584,-0.03439843654632568,XArbitraryCorrectedZVertical,-0.2743273079395294,0.6587010622024536,0.6462814807891846,-0.270512580871582,-0.001788531080819666,-0.9998305439949036,0.018285121768713,-14.78955459594727,-62.35985565185547,-13.95526123046875,2
2017-12-04 17:17:01.667 -0800,17,C4D50155-580C-4885-BACB-A13DEF47355A,1512436621.214716,49.27715556849828,-122.907443947797,343.0692,-1,-1,10,65,-9999,117668.1502805417,0.040008544921875,-0.9932098388671875,0.013458251953125,117668.1412775417,0.02799035568895081,-0.1219219115488086,-0.1018744338110191,117668.1292535417,0.6677975603989595,-3.01487414515256,1.552762536817174,-0.005782656371593475,0.0201149545609951,0.008526485413312912,0.02230563759803772,0.0009207725524902344,0.005506396293640137,XArbitraryCorrectedZVertical,-0.2752706110477448,0.6581323742866516,0.6458877921104431,-0.2718743979930878,-0.002270831726491451,-0.9998373985290527,0.01782426238059998,-14.91971969604492,-62.06219863891602,-14.00344848632812,2
2017-12-04 17:17:01.697 -0800,18,C4D50155-580C-4885-BACB-A13DEF47355A,1512436621.214716,49.27715556849828,-122.907443947797,343.0692,-1,-1,10,65,-9999,117668.1803405417,-0.028411865234375,-1.022552490234375,-0.00457763671875,117668.1713375417,-0.007245129745560568,-0.008194014041955799,-0.1798880095193643,117668.1642875417,0.870985127955445,3.061739370414668,1.551499725380349,0.0260964035987854,-0.0666598305106163,-0.1750804334878922,0.01233547925949097,0.00805354118347168,-0.01371610164642334,XArbitraryCorrectedZVertical,-0.2755859792232513,0.6585147976875305,0.6464176774024963,-0.2693580687046051,0.00153474893886596,-0.9998138546943665,0.01917874068021774,-14.79783058166504,-61.9833869934082,-13.78192138671875,2
2017-12-04 17:17:01.727 -0800,19,C4D50155-580C-4885-BACB-A13DEF47355A,1512436621.214716,49.27715556849828,-122.907443947797,343.0692,-1,-1,10,65,-9999,117668.2103646667,-0.044677734375,-1.040771484375,0.0154571533203125,117668.2013626667,0.01579041473529782,-0.2419471197692628,-0.0002918824554726845,117668.1993835417,1.091903553498375,2.838056479495097,1.549939617514622,0.04195576906204224,-0.2197027951478958,-0.04328225925564766,-0.05055651068687439,-0.0364418625831604,-0.03430628776550293,XArbitraryCorrectedZVertical,-0.2763004004955292,0.6584668159484863,0.6471996307373047,-0.2668536603450775,0.006214474327862263,-0.9997825026512146,0.01984091848134995,-14.54480361938477,-62.15628051757812,-13.943115234375,2
2017-12-04 17:17:01.758 -0800,20,C4D50155-580C-4885-BACB-A13DEF47355A,1512436621.214716,49.27715556849828,-122.907443947797,343.0692,-1,-1,10,65,-9999,117668.2404246667,-0.01446533203125,-1.0875244140625,0.0736846923828125,117668.2314216667,-0.05067329764148271,0.1842670452997816,0.2994197339898267,117668.2344126667,0.9050036589761578,3.020482533484877,1.550715399747927,-0.02964256331324577,0.1205577477812767,0.2773984670639038,-0.0174650251865387,-0.06145036220550537,0.04283082485198975,XArbitraryCorrectedZVertical,-0.2735837399959564,0.6596160531044006,0.647275447845459,-0.2666310369968414,0.002419851254671812,-0.9997983574867249,0.0198828000575304,-14.68925857543945,-61.94367980957031,-13.77365112304688,2
2017-12-04 17:17:01.787 -0800,21,C4D50155-580C-4885-BACB-A13DEF47355A,1512436621.214716,49.27715556849828,-122.907443947797,343.0692,-1,-1,10,65,-9999,117668.2704846667,-0.0010223388671875,-1.175079345703125,-0.0751190185546875,117668.2614816667,-0.01414324960108381,0.3079506379096776,0.5418116016611327,117668.2344126667,0.9050036589761578,3.020482533484877,1.550715399747927,-0.02964256331324577,0.1205577477812767,0.2773984670639038,-0.0174650251865387,-0.06145036220550537,0.04283082485198975,XArbitraryCorrectedZVertical,-0.2735837399959564,0.6596160531044006,0.647275447845459,-0.2666310369968414,0.002419851254671812,-0.9997983574867249,0.0198828000575304,-14.68925857543945,-61.94367980957031,-13.77365112304688,2
2017-12-04 17:17:01.820 -0800,22,C4D50155-580C-4885-BACB-A13DEF47355A,1512436621.214716,49.27715556849828,-122.907443947797,343.0692,-1,-1,10,65,-9999,117668.3005446667,0.0385894775390625,-1.217926025390625,0.03466796875,117668.2915416667,0.0673635945091183,0.2834101410968154,0.5134803613526518,117668.2695076667,0.1359612236562662,-2.479883615986211,1.547205386531129,0.008173665031790733,0.2166047394275665,0.5559079051017761,0.0003485679626464844,-0.130237340927124,-0.06572365760803223,XArbitraryCorrectedZVertical,-0.272413432598114,0.6596101522445679,0.6435199975967407,-0.2767431437969208,-0.01447819173336029,-0.9997217655181885,0.01858926191926003,-15.35148620605469,-61.89334869384766,-14.09918212890625,2
2017-12-04 17:17:01.847 -0800,23,C4D50155-580C-4885-BACB-A13DEF47355A,1512436621.214716,49.27715556849828,-122.907443947797,343.0692,-1,-1,10,65,-9999,117668.3306046667,0.0353851318359375,-1.038162231445312,-0.060394287109375,117668.3216016667,0.1498214534445877,0.2573356634960676,0.1033604776992833,117668.3045426667,-0.2139499541000705,-2.123468161864126,1.53152661484032,0.1347452253103256,0.3809141218662262,0.4565438032150269,0.07708254456520081,-0.1962360739707947,0.003357648849487305,XArbitraryCorrectedZVertical,-0.2686411738395691,0.6619148254394531,0.6392648220062256,-0.2846758663654327,-0.0333966501057148,-0.9992290735244751,0.02059863321483135,-16.02679061889648,-61.85049057006836,-14.24050903320312,2
2017-12-04 17:17:01.877 -0800,24,C4D50155-580C-4885-BACB-A13DEF47355A,1512436621.214716,49.27715556849828,-122.907443947797,343.0692,-1,-1,10,65,-9999,117668.3606636667,-0.0254669189453125,-1.081130981445312,0.03985595703125,117668.3516616667,-0.162636051977831,0.0005808354337462819,-0.1423251876082327,117668.3396376667,-0.1827092662446121,-2.145953024600096,1.524554559938483,0.02485191822052002,-0.01054076664149761,-0.09520366787910461,0.06533801555633545,-0.03862082958221436,-0.08136355876922607,XArbitraryCorrectedZVertical,-0.2704042494297028,0.6629095077514648,0.635737419128418,-0.2885647714138031,-0.03877246007323265,-0.9989310503005981,0.02513494715094566,-16.87343215942383,-61.79290390014648,-13.66766357421875,2
2017-12-04 17:17:01.908 -0800,25,C4D50155-580C-4885-BACB-A13DEF47355A,1512436621.214716,49.27715556849828,-122.907443947797,343.0692,-1,-1,10,65,-9999,117668.3907236667,-0.041046142578125,-1.051788330078125,0.0362548828125,117668.3817216667,-0.1933268530121221,0.2329333847437806,-0.09128304215577399,117668.3746716667,-0.2418493310095176,-2.085476034362308,1.530858360293021,-0.2284037172794342,0.175664871931076,-0.07922941446304321,-0.001497656106948853,-0.1009560823440552,0.03783261775970459,XArbitraryCorrectedZVertical,-0.2714080810546875,0.660425066947937,0.6379355192184448,-0.2884685099124908,-0.03474196046590805,-0.9992026090621948,0.01964723132550716,-16.29297256469727,-61.70359802246094,-14.16763305664062,2
2017-12-04 17:17:01.937 -0800,26,C4D50155-580C-4885-BACB-A13DEF47355A,1512436621.214716,49.27715556849828,-122.907443947797,343.0692,-1,-1,10,65,-9999,117668.4207836667,-0.03729248046875,-0.9934844970703125,0.0039825439453125,117668.4117806667,-0.03290149105516593,0.1754226873196284,-0.1820462352667645,117668.4097976667,-0.3200725508461506,-1.999623054920796,1.536290422104086,-0.0628112256526947,0.1923764646053314,-0.1410023272037506,-0.001756250858306885,-0.02787792682647705,0.01355743408203125,XArbitraryCorrectedZVertical,-0.2742843627929688,0.657218337059021,0.6390653848648071,-0.2905629575252533,-0.03135532513260841,-0.9994047284126282,0.01433570869266987,-15.71785163879395,-61.45729827880859,-14.63894653320312,2
2017-12-04 17:17:01.967 -0800,27,C4D50155-580C-4885-BACB-A13DEF47355A,1512436621.214716,49.27715556849828,-122.907443947797,343.0692,-1,-1,10,65,-9999,117668.4508436667,-0.127655029296875,-0.974761962890625,-0.0212554931640625,117668.4418406667,-0.03919054596938806,0.01725009332877025,-0.120860109222194,117668.4448316667,-0.238059657527192,-2.078127824964425,1.541366681816136,-0.01278300303965807,0.01824771054089069,-0.1277345418930054,-0.08499592542648315,0.01812165975570679,-0.03362894058227539,XArbitraryCorrectedZVertical,-0.2772727012634277,0.6559422612190247,0.6394035220146179,-0.2898651659488678,-0.02569134160876274,-0.9995669722557068,0.01428080163896084,-15.32039451599121,-61.45287704467773,-14.67770385742188,2
2017-12-04 17:17:01.998 -0800,28,C4D50155-580C-4885-BACB-A13DEF47355A,1512436621.214716,49.27715556849828,-122.907443947797,343.0692,-1,-1,10,65,-9999,117668.4809036667,-0.13275146484375,-0.93829345703125,-0.0037078857421875,117668.4719006667,-0.2192966683820298,-0.2309336170812401,0.07621700723697772,117668.4448316667,-0.238059657527192,-2.078127824964425,1.541366681816136,-0.01278300303965807,0.01824771054089069,-0.1277345418930054,-0.08499592542648315,0.01812165975570679,-0.03362894058227539,XArbitraryCorrectedZVertical,-0.2772727012634277,0.6559422612190247,0.6394035220146179,-0.2898651659488678,-0.02569134160876274,-0.9995669722557068,0.01428080163896084,-15.32039451599121,-61.45287704467773,-14.67770385742188,2
2017-12-04 17:17:02.028 -0800,29,C4D50155-580C-4885-BACB-A13DEF47355A,1512436621.214716,49.27715556849828,-122.907443947797,343.0692,-1,-1,10,65,-9999,117668.5109626667,-0.046905517578125,-0.9520721435546875,0.0342254638671875,117668.5019606667,-0.120018816633838,-0.2270786914033504,0.1854763867507866,117668.4799266667,-0.4066512274807138,-1.914334247170185,1.543540129968712,-0.2129200994968414,-0.2522355914115906,0.1061410382390022,-0.1124795377254486,0.06220489740371704,-0.02670001983642578,XArbitraryCorrectedZVertical,-0.2749985456466675,0.6549500823020935,0.6417756676673889,-0.2890315651893616,-0.0256277434527874,-0.9996285438537598,0.009167620912194252,-15.08432960510254,-61.44469833374023,-14.986083984375,2
2017-12-04 17:17:02.060 -0800,30,C4D50155-580C-4885-BACB-A13DEF47355A,1512436621.214716,49.27715556849828,-122.907443947797,343.0692,-1,-1,10,65,-9999,117668.5410226667,-0.047119140625,-0.9214935302734375,0.075164794921875,117668.5320206667,0.06361226579763268,-0.2559414986654112,0.06117866919351828,117668.5149606667,-0.6387639085023354,-1.690986276722579,1.538260811435306,-0.05163859575986862,-0.2600849270820618,0.150580570101738,-0.005386888980865479,0.04758173227310181,0.03257095813751221,XArbitraryCorrectedZVertical,-0.2692230343818665,0.6553378701210022,0.643793523311615,-0.289102703332901,-0.03227180615067482,-0.9994707703590393,0.003897532587870955,-15.59296607971191,-61.00164031982422,-15.53363037109375,2
2017-12-04 17:17:02.088 -0800,31,C4D50155-580C-4885-BACB-A13DEF47355A,1512436621.214716,49.27715556849828,-122.907443947797,343.0692,-1,-1,10,65,-9999,117668.5710826667,-0.054473876953125,-0.923675537109375,0.055816650390625,117668.5620796667,0.1792461876966552,-0.0789656557980485,0.03396435864621656,117668.5500566667,-0.5888459047086676,-1.749759799737293,1.534747713003336,0.1575625091791153,-0.1967336386442184,0.05356628075242043,-0.01666340231895447,0.08348727226257324,0.07223451137542725,XArbitraryCorrectedZVertical,-0.2656234800815582,0.6577604413032532,0.6437957882881165,-0.2869164943695068,-0.03543008491396904,-0.9993503093719482,0.006409262772649527,-15.81217384338379,-60.83226013183594,-15.27090454101562,2
2017-12-04 17:17:02.118 -0800,32,C4D50155-580C-4885-BACB-A13DEF47355A,1512436621.214716,49.27715556849828,-122.907443947797,343.0692,-1,-1,10,65,-9999,117668.6011426667,-0.11407470703125,-0.8886260986328125,0.0521240234375,117668.5921396667,0.05068608081471509,-0.0776617721283457,0.06136988415978596,117668.5851206667,-0.4305573051587355,-1.912014054623784,1.53183881876037,0.1704684346914291,-0.1330285519361496,0.01035492308437824,-0.04176554083824158,0.1102794408798218,0.01816368103027344,XArbitraryCorrectedZVertical,-0.2648212313652039,0.6605924367904663,0.6420151591300964,-0.2851367592811584,-0.03667988255620003,-0.9992412328720093,0.0130253043025732,-15.87069511413574,-60.90573883056641,-15.5052490234375,2
2017-12-04 17:17:02.148 -0800,33,C4D50155-580C-4885-BACB-A13DEF47355A,1512436621.214716,49.27715556849828,-122.907443947797,343.0692,-1,-1,10,65,-9999,117668.6312026667,-0.006866455078125,-0.96490478515625,0.0878448486328125,117668.6221996667,-0.04520449634300499,0.1323833409428579,0.2228224273491857,117668.6202156667,-0.4778431994612172,-1.865156637636152,1.527552930894208,-0.09812188148498535,0.1038195937871933,0.2271715551614761,-0.03670179843902588,0.04584860801696777,0.07553863525390625,XArbitraryCorrectedZVertical,-0.2630782723426819,0.6611031293869019,0.6415655612945557,-0.2865746915340424,-0.04134693369269371,-0.9990651607513428,0.01253505051136017,-16.03779983520508,-60.95931243896484,-15.11285400390625,2
2017-12-04 17:17:02.178 -0800,34,C4D50155-580C-4885-BACB-A13DEF47355A,1512436621.214716,49.27715556849828,-122.907443947797,343.0692,-1,-1,10,65,-9999,117668.6612626667,-0.027008056640625,-0.9535675048828125,0.0611572265625,117668.6522596667,0.2393888872261326,0.1745789978862913,-0.02705984720407712,117668.6552506667,-0.4192291731187814,-1.918994906889908,1.522101320735881,0.2482055872678757,0.1617896258831024,-0.01089499983936548,0.04432696104049683,0.04512500762939453,0.05417048931121826,XArbitraryCorrectedZVertical,-0.2637733817100525,0.6623620390892029,0.6389086246490479,-0.2889544665813446,-0.04573076218366623,-0.9988146424293518,0.0165997352451086,-16.47597885131836,-60.98986434936523,-15.01730346679688,2
2017-12-04 17:17:02.208 -0800,35,C4D50155-580C-4885-BACB-A13DEF47355A,1512436621.214716,49.27715556849828,-122.907443947797,343.0692,-1,-1,10,65,-9999,117668.6913216667,-0.101837158203125,-0.944305419921875,0.0496063232421875,117668.6823196667,0.1086809409250436,0.3401890018534138,0.101736482066553,117668.6552506667,-0.4192291731187814,-1.918994906889908,1.522101320735881,0.2482055872678757,0.1617896258831024,-0.01089499983936548,0.04432696104049683,0.04512500762939453,0.05417048931121826,XArbitraryCorrectedZVertical,-0.2637733817100525,0.6623620390892029,0.6389086246490479,-0.2889544665813446,-0.04573076218366623,-0.9988146424293518,0.0165997352451086,-16.47597885131836,-60.98986434936523,-15.01730346679688,2
2017-12-04 17:17:02.238 -0800,36,C4D50155-580C-4885-BACB-A13DEF47355A,1512436621.214716,49.27715556849828,-122.907443947797,343.0692,-1,-1,10,65,-9999,117668.7213816667,0.0126800537109375,-0.91552734375,-0.1543121337890625,117668.7123796667,-0.143311888792107,0.2262773462313455,0.02448510306218852,117668.6903456667,-0.3101680835787413,-2.018936082082519,1.518728120824082,0.115257054567337,0.3380002677440643,0.1263934671878815,-0.0603560209274292,0.06117528676986694,0.03907549381256104,XArbitraryCorrectedZVertical,-0.2672356963157654,0.6632155179977417,0.6354649066925049,-0.2913989126682281,-0.0468827486038208,-0.9986447691917419,0.02253948152065277,-16.21719932556152,-61.01898956298828,-14.68194580078125,2
2017-12-04 17:17:02.268 -0800,37,C4D50155-580C-4885-BACB-A13DEF47355A,1512436621.214716,49.27715556849828,-122.907443947797,343.0692,-1,-1,10,65,-9999,117668.7514416667,-0.0346221923828125,-0.9874725341796875,-0.0141448974609375,117668.7424386667,-0.3332754356635681,0.314551548987548,0.1615713201740173,117668.7253796667,-0.3521994660443884,-1.967098004887174,1.517208176227613,-0.2020119726657867,0.2349152863025665,0.006485209800302982,0.05408281087875366,0.09022402763366699,-0.1725651025772095,XArbitraryCorrectedZVertical,-0.2694001793861389,0.6616309285163879,0.6342708468437195,-0.2955790162086487,-0.04938307777047157,-0.9985644817352295,0.02066388353705406,-16.26540184020996,-60.68510818481445,-14.51324462890625,2
2017-12-04 17:17:02.301 -0800,38,C4D50155-580C-4885-BACB-A13DEF47355A,1512436621.214716,49.27715556849828,-122.907443947797,343.0692,-1,-1,10,65,-9999,117668.7815016667,0.0579376220703125,-0.9954681396484375,0.013275146484375,117668.7724986667,0.05622439061764387,0.02725292638310787,0.1351080210541179,117668.7604746667,-0.5414248435023488,-1.767903653418335,1.514732783762585,-0.1623169630765915,0.3203185796737671,0.2956374883651733,0.01004531979560852,-0.009887158870697021,0.01703202724456787,XArbitraryCorrectedZVertical,-0.2695052921772003,0.6579139828681946,0.6351128816604614,-0.3019042015075684,-0.05492142587900162,-0.9984288215637207,0.01096782274544239,-16.30281829833984,-60.95816421508789,-15.14804077148438,2
2017-12-04 17:17:02.328 -0800,39,C4D50155-580C-4885-BACB-A13DEF47355A,1512436621.214716,49.27715556849828,-122.907443947797,343.0692,-1,-1,10,65,-9999,117668.8115616667,0.036376953125,-0.947906494140625,0.0320281982421875,117668.8025586667,0.2413076947915347,-0.1849749135175247,-0.1151002244165706,117668.7955396667,-0.4917558803138369,-1.817696046228447,1.510533233385171,0.2866864502429962,-0.2191179245710373,-0.06427846103906631,0.10389244556427,0.07888847589492798,0.004146814346313477,XArbitraryCorrectedZVertical,-0.2688659727573395,0.6595965623855591,0.6333850026130676,-0.3024324476718903,-0.05837545543909073,-0.9981847405433655,0.01471307314932346,-16.60615539550781,-60.75846862792969,-15.16281127929688,2
2017-12-04 17:17:02.358 -0800,40,C4D50155-580C-4885-BACB-A13DEF47355A,1512436621.214716,49.27715556849828,-122.907443947797,343.0692,-1,-1,10,65,-9999,117668.8416206667,0.034942626953125,-1.033615112304688,0.017425537109375,117668.8326186667,0.08633116042488065,0.04697896057732479,-0.3141555369334532,117668.8306346667,-0.354584859996811,-1.959372951799278,1.51370846546161,0.1193845495581627,-0.041272833943367,-0.2477393746376038,0.1010998785495758,0.0122564435005188,-0.001097917556762695,XArbitraryCorrectedZVertical,-0.270186722278595,0.6616660952568054,0.632659912109375,-0.2982228398323059,-0.05277526751160622,-0.9983709454536438,0.02160577289760113,-16.31439971923828,-60.89949417114258,-14.7547607421875,2
2017-12-04 17:17:02.390 -0800,41,C4D50155-580C-4885-BACB-A13DEF47355A,1512436621.214716,49.27715556849828,-122.907443947797,343.0692,-1,-1,10,65,-9999,117668.8716806667,-0.0506591796875,-1.087646484375,0.069793701171875,117668.8627086667,-0.04153146456756771,0.2582440677438936,-0.209657356816488,117668.8656686667,-0.241288570926099,-2.068244639760391,1.522861140274045,-0.02807919308543205,0.2306333780288696,-0.2168392091989517,-0.02891826629638672,-0.07725954055786133,0.0246661901473999,XArbitraryCorrectedZVertical,-0.2753238677978516,0.6600163578987122,0.6332038640975952,-0.2960177659988403,-0.04208086058497429,-0.9988512992858887,0.02284964919090271,-16.0123291015625,-61.01918029785156,-14.69607543945312,2
2017-12-04 17:17:02.418 -0800,42,C4D50155-580C-4885-BACB-A13DEF47355A,1512436621.214716,49.27715556849828,-122.907443947797,343.0692,-1,-1,10,65,-9999,117668.9017406667,-0.0357208251953125,-1.16180419921875,-0.0893707275390625,117668.8927686667,0.1542146039787824,0.1423326444592849,-0.3222424918995878,117668.8656686667,-0.241288570926099,-2.068244639760391,1.522861140274045,-0.02807919308543205,0.2306333780288696,-0.2168392091989517,-0.02891826629638672,-0.07725954055786133,0.0246661901473999,XArbitraryCorrectedZVertical,-0.2753238677978516,0.6600163578987122,0.6332038640975952,-0.2960177659988403,-0.04208086058497429,-0.9988512992858887,0.02284964919090271,-16.0123291015625,-61.01918029785156,-14.69607543945312,2
2017-12-04 17:17:02.448 -0800,43,C4D50155-580C-4885-BACB-A13DEF47355A,1512436621.214716,49.27715556849828,-122.907443947797,343.0692,-1,-1,10,65,-9999,117668.9318006667,-0.1240386962890625,-0.9947967529296875,-0.0697021484375,117668.9228286667,0.2163533427452743,-0.1166488525904517,-0.3514973164741083,117668.9007646667,-0.05178199650368773,-2.249897860912716,1.52826091964379,0.1836656630039215,0.1093682572245598,-0.330206573009491,0.03601238131523132,-0.2141002416610718,-0.07709097862243652,XArbitraryCorrectedZVertical,-0.2814005315303802,0.6589077115058899,0.6321340799331665,-0.2950589060783386,-0.03306744620203972,-0.9990954995155334,0.02669126354157925,-15.24773788452148,-61.10489654541016,-14.53738403320312,2
2017-12-04 17:17:02.479 -0800,44,C4D50155-580C-4885-BACB-A13DEF47355A,1512436621.214716,49.27715556849828,-122.907443947797,343.0692,-1,-1,10,65,-9999,117668.9618606667,-0.22222900390625,-0.9883575439453125,-0.030609130859375,117668.9528886667,-0.358646039788208,0.01546124802456402,0.1220942180713367,117668.9358286667,0.3051860205113468,-2.60816955315996,1.530479509297694,0.1352391541004181,-0.1314742416143417,-0.2646808326244354,-0.1191282868385315,0.01247775554656982,-0.08636832237243652,XArbitraryCorrectedZVertical,-0.2861986458301544,0.6598682403564453,0.6315746307373047,-0.2894411087036133,-0.0204743817448616,-0.9991874098777771,0.03467151895165443,-14.20428085327148,-61.05450820922852,-14.06878662109375,2
2017-12-04 17:17:02.509 -0800,45,C4D50155-580C-4885-BACB-A13DEF47355A,1512436621.214716,49.27715556849828,-122.907443947797,343.0692,-1,-1,10,65,-9999,117668.9919206667,-0.0936126708984375,-0.9306793212890625,0.012908935546875,117668.9829476667,-0.7872948667258027,-0.03498594724037096,0.4256604938784169,117668.9709236667,0.08359050121738792,-2.38771245394403,1.53672376644432,-0.5547977089881897,-0.01622883602976799,0.3045878410339355,-0.1926549673080444,0.02423036098480225,-0.06461381912231445,XArbitraryCorrectedZVertical,-0.2835065126419067,0.6572867631912231,0.6345636248588562,-0.291420191526413,-0.02328742854297161,-0.9994195699691772,0.02480366267263889,-13.93539047241211,-60.96007919311523,-14.61990356445312,2
2017-12-04 17:17:02.541 -0800,46,C4D50155-580C-4885-BACB-A13DEF47355A,1512436621.214716,49.27715556849828,-122.907443947797,343.0692,-1,-1,10,65,-9999,117669.0219796667,0.0589447021484375,-1.0167236328125,0.1574859619140625,117669.0130076667,-0.904128809012015,0.1404806822372438,0.3356525732525728,117669.0059586667,-0.8097838195381037,-1.495527124838589,1.532578765548692,-0.9016056060791016,0.04269903153181076,0.4333869814872742,-0.007994949817657471,0.02122724056243896,0.07151913642883301,XArbitraryCorrectedZVertical,-0.2743422389030457,0.6506161689758301,0.6415418386459351,-0.299762099981308,-0.03805609047412872,-0.9992697834968567,-0.002869873307645321,-14.55491256713867,-60.72110366821289,-15.44366455078125,2
2017-12-04 17:17:02.569 -0800,47,C4D50155-580C-4885-BACB-A13DEF47355A,1512436621.214716,49.27715556849828,-122.907443947797,343.0692,-1,-1,10,65,-9999,117669.0520396667,0.0558319091796875,-0.9880523681640625,0.215728759765625,117669.0430676667,0.4243147985795998,-0.1069400325204588,-0.06686185495974736,117669.0410536667,-1.178561933985801,-1.126321260367378,1.520201203667294,0.1111348792910576,-0.09045717120170593,0.0008512232452630997,0.1350576281547546,-0.005674242973327637,0.3294994831085205,XArbitraryCorrectedZVertical,-0.2692863345146179,0.6454610824584961,0.646394670009613,-0.3050194382667542,-0.04562585055828094,-0.9987203478813171,-0.0217297226190567,-15.46138763427734,-60.05489730834961,-17.17550659179688,2
2017-12-04 17:17:02.599 -0800,48,C4D50155-580C-4885-BACB-A13DEF47355A,1512436621.214716,49.27715556849828,-122.907443947797,343.0692,-1,-1,10,65,-9999,117669.0820996667,-0.086669921875,-0.99462890625,-0.2599639892578125,117669.0731276667,0.5161672245764327,-0.1496446195482064,-0.02804415154297041,117669.0760876667,-0.6776039532795323,-1.632841088912914,1.528313216368417,0.6087608337402344,-0.1721147000789642,-0.04332268610596657,-0.03006038069725037,0.007093310356140137,-0.13271164894104,XArbitraryCorrectedZVertical,-0.2720571756362915,0.6536819934844971,0.6398893594741821,-0.2987045347690582,-0.04234256595373154,-0.9990977048873901,0.002630510833114386,-15.56181144714355,-60.47000503540039,-16.2108154296875,2
2017-12-04 17:17:02.629 -0800,49,C4D50155-580C-4885-BACB-A13DEF47355A,1512436621.214716,49.27715556849828,-122.907443947797,343.0692,-1,-1,10,65,-9999,117669.1121596667,-0.0092620849609375,-1.039810180664062,0.0198822021484375,117669.1031876667,0.4478385004882697,-0.185726723893254,0.07483056557348247,117669.0760876667,-0.6776039532795323,-1.632841088912914,1.528313216368417,0.6087608337402344,-0.1721147000789642,-0.04332268610596657,-0.03006038069725037,0.007093310356140137,-0.13271164894104,XArbitraryCorrectedZVertical,-0.2720571756362915,0.6536819934844971,0.6398893594741821,-0.2987045347690582,-0.04234256595373154,-0.9990977048873901,0.002630510833114386,-15.56181144714355,-60.47000503540039,-16.2108154296875,2
2017-12-04 17:17:02.659 -0800,50,C4D50155-580C-4885-BACB-A13DEF47355A,1512436621.214716,49.27715556849828,-122.907443947797,343.0692,-1,-1,10,65,-9999,117669.1422196667,0.022369384765625,-0.929534912109375,0.0048828125,117669.1332466667,0.3176706432562488,-0.282924380513985,-0.007573497507967338,117669.1111826667,-0.3716051252469108,-1.944396078879871,1.523395046557953,0.4493139386177063,-0.2059135586023331,0.0823337510228157,0.02308058738708496,-0.002328634262084961,-0.02617430686950684,XArbitraryCorrectedZVertical,-0.2717473804950714,0.6593880653381348,0.6356859803199768,-0.2954016923904419,-0.04407669976353645,-0.9988767504692078,0.0172785185277462,-15.66329002380371,-60.73658752441406,-15.03738403320312,2
2017-12-04 17:17:02.690 -0800,51,C4D50155-580C-4885-BACB-A13DEF47355A,1512436621.214716,49.27715556849828,-122.907443947797,343.0692,-1,-1,10,65,-9999,117669.1722786667,0.0213165283203125,-0.922393798828125,0.04827880859375,117669.1633066667,0.2881646825909339,-0.1053724959028382,-0.1991234894407886,117669.1462476667,-0.1541286996880822,-2.171211990175025,1.516611891119966,0.3867109417915344,-0.2670781910419464,-0.06360809504985809,0.07619744539260864,0.08137238025665283,-0.0120244026184082,XArbitraryCorrectedZVertical,-0.2703250348567963,0.6649916768074036,0.6325993537902832,-0.2907347679138184,-0.04465751722455025,-0.9985323548316956,0.0305791087448597,-15.63038635253906,-60.83662414550781,-14.68203735351562,2
2017-12-04 17:17:02.719 -0800,52,C4D50155-580C-4885-BACB-A13DEF47355A,1512436621.214716,49.27715556849828,-122.907443947797,343.0692,-1,-1,10,65,-9999,117669.2023271667,-0.0272674560546875,-0.9031219482421875,0.0633087158203125,117669.1933666667,0.02810300740306116,0.1838723648262318,-0.2447093504518929,117669.1813426667,0.06559100089535055,-2.394829162155828,1.514240792514774,0.1436687260866165,0.02865318581461906,-0.2152160257101059,0.05080735683441162,0.07867765426635742,0.01326096057891846,XArbitraryCorrectedZVertical,-0.2725854814052582,0.6681509613990784,0.6304851174354553,-0.2859335839748383,-0.03837142139673233,-0.9984011650085449,0.04145710542798042,-15.73099327087402,-61.00198745727539,-13.732421875,2
2017-12-04 17:17:02.749 -0800,53,C4D50155-580C-4885-BACB-A13DEF47355A,1512436621.214716,49.27715556849828,-122.907443947797,343.0692,-1,-1,10,65,-9999,117669.2323871667,-0.081817626953125,-0.950225830078125,0.02960205078125,117669.2234151667,0.05299876990533989,0.01928661261435384,-0.1978515637041668,117669.2163651667,0.2031014402061606,-2.526983698570556,1.518016842322428,0.04296994209289551,0.1243779212236404,-0.2232276350259781,-0.02323618531227112,0.06661593914031982,-0.00792849063873291,XArbitraryCorrectedZVertical,-0.277205228805542,0.6668522953987122,0.6303483247756958,-0.2848233282566071,-0.03039847686886787,-0.9986074566841125,0.04306944459676743,-14.96169853210449,-61.09520721435547,-13.38021850585938,2
2017-12-04 17:17:02.783 -0800,54,C4D50155-580C-4885-BACB-A13DEF47355A,1512436621.214716,49.27715556849828,-122.907443947797,343.0692,-1,-1,10,65,-9999,117669.2624471667,-0.0899200439453125,-1.01953125,-0.034912109375,117669.2534751667,-0.02453011048461086,-0.05394818683395314,-0.07077563649772782,117669.2514611667,0.3177900301078501,-2.64251710963432,1.518944929234898,0.05008358508348465,-0.06999332457780838,-0.09275117516517639,-0.04430010914802551,0.002302885055541992,-0.01090431213378906,XArbitraryCorrectedZVertical,-0.27908855676651,0.6669707298278809,0.6304805278778076,-0.2824048101902008,-0.02479168400168419,-0.9986560344696045,0.04548075422644615,-14.30591773986816,-61.14769744873047,-13.44830322265625,2
2017-12-04 17:17:02.809 -0800,55,C4D50155-580C-4885-BACB-A13DEF47355A,1512436621.214716,49.27715556849828,-122.907443947797,343.0692,-1,-1,10,65,-9999,117669.2925371667,-0.052734375,-1.051956176757812,0.017547607421875,117669.2835341667,0.04578932651838639,-0.2165501503498311,0.0003238403885536354,117669.2865251667,0.3140742241725616,-2.642746636108165,1.52075359754054,0.03134271875023842,-0.2133521139621735,0.009717249311506748,-0.05149427056312561,-0.03833067417144775,-0.06515133380889893,XArbitraryCorrectedZVertical,-0.2778417766094208,0.666897177696228,0.6316893100738525,-0.2811033129692078,-0.02391465194523335,-0.9987481236457825,0.04389579594135284,-14.29759407043457,-60.927978515625,-13.27630615234375,2
2017-12-04 17:17:02.840 -0800,56,C4D50155-580C-4885-BACB-A13DEF47355A,1512436621.214716,49.27715556849828,-122.907443947797,343.0692,-1,-1,10,65,-9999,117669.3225971667,-0.059051513671875,-1.043228149414062,0.09808349609375,117669.3135941667,0.1873664321764158,0.02190796207531884,-0.02732616331308505,117669.2865251667,0.3140742241725616,-2.642746636108165,1.52075359754054,0.03134271875023842,-0.2133521139621735,0.009717249311506748,-0.05149427056312561,-0.03833067417144775,-0.06515133380889893,XArbitraryCorrectedZVertical,-0.2778417766094208,0.666897177696228,0.6316893100738525,-0.2811033129692078,-0.02391465194523335,-0.9987481236457825,0.04389579594135284,-14.29759407043457,-60.927978515625,-13.27630615234375,2
2017-12-04 17:17:02.869 -0800,57,C4D50155-580C-4885-BACB-A13DEF47355A,1512436621.214716,49.27715556849828,-122.907443947797,343.0692,-1,-1,10,65,-9999,117669.3526571667,-0.020751953125,-1.018600463867188,0.088226318359375,117669.3436541667,0.04837712014961638,0.1537040759978142,0.02359880305141015,117669.3216201667,0.3843913639033555,-2.717647035645056,1.515478140765703,0.1835636794567108,0.0547642856836319,-0.008094027638435364,-0.02414438128471375,-0.05470657348632812,0.04506301879882812,XArbitraryCorrectedZVertical,-0.2775797247886658,0.6694267988204956,0.6303455829620361,-0.2783522605895996,-0.02273061871528625,-0.9984703660011292,0.05036548525094986,-14.79092597961426,-61.2454833984375,-13.09796142578125,2
2017-12-04 17:17:02.899 -0800,58,C4D50155-580C-4885-BACB-A13DEF47355A,1512436621.214716,49.27715556849828,-122.907443947797,343.0692,-1,-1,10,65,-9999,117669.3827171667,-0.0606689453125,-1.003890991210938,0.002655029296875,117669.3737141667,0.009671802130840769,0.1655181249095147,-0.01324762852649016,117669.3566551667,0.37937226595499,-2.707955596055981,1.512457166797775,0.06875547021627426,0.1293077021837234,-0.01003460399806499,0.003044694662094116,-0.0265425443649292,0.03255772590637207,XArbitraryCorrectedZVertical,-0.2789123952388763,0.66981041431427,0.628603994846344,-0.2800301313400269,-0.02448330447077751,-0.9982987642288208,0.05287623032927513,-14.65099716186523,-61.27717208862305,-12.8348388671875,2
2017-12-04 17:17:02.929 -0800,59,C4D50155-580C-4885-BACB-A13DEF47355A,1512436621.214716,49.27715556849828,-122.907443947797,343.0692,-1,-1,10,65,-9999,117669.4127761667,-0.0543365478515625,-1.004531860351562,0.0749664306640625,117669.4037741667,-0.06568846618345846,0.1378856980710706,0.1246135684625517,117669.3917501667,0.386087272622591,-2.709198116149707,1.511904083481867,-0.05992121994495392,0.1719780415296555,0.03448618948459625,-0.0399707555770874,0.004293560981750488,-0.05730164051055908,XArbitraryCorrectedZVertical,-0.2807630002498627,0.6692364811897278,0.6276330947875977,-0.2817259132862091,-0.0246502161026001,-0.998266339302063,0.05341066047549248,-14.34369087219238,-61.52023696899414,-12.83609008789062,2
2017-12-04 17:17:02.960 -0800,60,C4D50155-580C-4885-BACB-A13DEF47355A,1512436621.214716,49.27715556849828,-122.907443947797,343.0692,-1,-1,10,65,-9999,117669.4428361667,0.039520263671875,-1.009140014648438,0.029998779296875,117669.4338341667,0.04246863095516658,-0.03740196698129084,0.1113004261732456,117669.4267841667,0.3108538092761566,-2.631002573370425,1.510791036109384,0.02204136177897453,-0.03318781033158302,0.1546176820993423,0.01101177930831909,-0.006819963455200195,0.002896666526794434,XArbitraryCorrectedZVertical,-0.2800849676132202,0.6691035628318787,0.6269112229347229,-0.2843122184276581,-0.02929181791841984,-0.9982002377510071,0.05229433253407478,-14.53859901428223,-61.32670974731445,-13.02264404296875,2
2017-12-04 17:17:02.990 -0800,61,C4D50155-580C-4885-BACB-A13DEF47355A,1512436621.214716,49.27715556849828,-122.907443947797,343.0692,-1,-1,10,65,-9999,117669.4728961667,0.016387939453125,-0.98895263671875,0.0548553466796875,117669.4638931667,0.142740907054394,0.07398980561734445,-0.02270770935066963,117669.4618791667,0.2986114809732117,-2.619264871516814,1.506534874193842,0.1479162722826004,0.04635506868362427,0.01143681071698666,0.08326074481010437,0.004298865795135498,-0.03018999099731445,XArbitraryCorrectedZVertical,-0.2794818878173828,0.6705990433692932,0.6254726052284241,-0.2845502495765686,-0.03202171996235847,-0.997935950756073,0.05562640354037285,-14.68586730957031,-61.08493041992188,-12.67996215820312,2
2017-12-04 17:17:03.020 -0800,62,C4D50155-580C-4885-BACB-A13DEF47355A,1512436621.214716,49.27715556849828,-122.907443947797,343.0692,-1,-1,10,65,-9999,117669.5029561667,-0.0595703125,-0.922210693359375,0.0675811767578125,117669.4939531667,0.05718792230003453,-0.04258394583036702,0.01052587789242918,117669.4969441667,0.3336719819906517,-2.65390261835712,1.502688561328474,0.08126659691333771,-0.04689216986298561,0.01210447959601879,-0.01726186275482178,0.06144803762435913,0.01887762546539307,XArbitraryCorrectedZVertical,-0.280284583568573,0.6719254851341248,0.6239439249038696,-0.2839862108230591,-0.03187141939997673,-0.9976815581321716,0.06008661165833473,-14.66383934020996,-61.27642440795898,-12.37728881835938,2
2017-12-04 17:17:03.050 -0800,63,C4D50155-580C-4885-BACB-A13DEF47355A,1512436621.214716,49.27715556849828,-122.907443947797,343.0692,-1,-1,10,65,-9999,117669.5330161667,-0.0498504638671875,-0.87884521484375,0.02783203125,117669.5240131667,0.0464250230705883,-0.04150696348553898,0.01564713666865156,117669.4969441667,0.3336719819906517,-2.65390261835712,1.502688561328474,0.08126659691333771,-0.04689216986298561,0.01210447959601879,-0.01726186275482178,0.06144803762435913,0.01887762546539307,XArbitraryCorrectedZVertical,-0.280284583568573,0.6719254851341248,0.6239439249038696,-0.2839862108230591,-0.03187141939997673,-0.9976815581321716,0.06008661165833473,-14.66383934020996,-61.27642440795898,-12.37728881835938,2
2017-12-04 17:17:03.080 -0800,64,C4D50155-580C-4885-BACB-A13DEF47355A,1512436621.214716,49.27715556849828,-122.907443947797,343.0692,-1,-1,10,65,-9999,117669.5630761667,-0.0367584228515625,-0.920684814453125,0.1400909423828125,117669.5540731667,-0.01199168175640879,-0.02968971878053037,0.005024319712543491,117669.5320391667,0.3285730991684123,-2.650503923412176,1.50115785973182,0.06418614834547043,-0.05746065825223923,0.009636262431740761,-0.01744928956031799,0.105837345123291,-0.02952957153320312,XArbitraryCorrectedZVertical,-0.2795804142951965,0.6726806163787842,0.6236338019371033,-0.2835740149021149,-0.03279789164662361,-0.9975762367248535,0.06132883951067924,-14.82609748840332,-61.22850036621094,-12.0892333984375,2
2017-12-04 17:17:03.110 -0800,65,C4D50155-580C-4885-BACB-A13DEF47355A,1512436621.214716,49.27715556849828,-122.907443947797,343.0692,-1,-1,10,65,-9999,117669.5931351667,0.0121307373046875,-0.9426727294921875,0.0392913818359375,117669.5841331667,-0.114105800065535,0.2804188785604384,-0.03652845014374485,117669.5670731667,0.3353417370387568,-2.659215874258178,1.500443397951348,-0.02831595577299595,0.04672707617282867,0.02094227634370327,0.00155600905418396,0.07050901651382446,0.08555412292480469,XArbitraryCorrectedZVertical,-0.2791184484958649,0.6732118129730225,0.6236328482627869,-0.2827692925930023,-0.03259238973259926,-0.997526228427887,0.06224250793457031,-14.90097808837891,-61.3734245300293,-12.05056762695312,2
2017-12-04 17:17:03.140 -0800,66,C4D50155-580C-4885-BACB-A13DEF47355A,1512436621.214716,49.27715556849828,-122.907443947797,343.0692,-1,-1,10,65,-9999,117669.6231951667,-0.009765625,-0.931671142578125,0.050689697265625,117669.6141921667,0.02643214013514545,0.1977005624703593,-0.2649136883778881,117669.6021691667,0.3313068008625211,-2.647244439560607,1.503493523143719,-0.06395983695983887,0.2624116241931915,-0.1185165345668793,0.04391497373580933,0.05689436197280884,-0.04041552543640137,XArbitraryCorrectedZVertical,-0.2815934717655182,0.6710360646247864,0.6236368417739868,-0.28546541929245,-0.03189105540513992,-0.9977360367774963,0.05916856601834297,-15.02820014953613,-61.35997772216797,-12.1824951171875,2
2017-12-04 17:17:03.170 -0800,67,C4D50155-580C-4885-BACB-A13DEF47355A,1512436621.214716,49.27715556849828,-122.907443947797,343.0692,-1,-1,10,65,-9999,117669.6532551667,-0.0909271240234375,-1.061248779296875,0.084381103515625,117669.6442521667,-0.1864204773572196,0.0103248092301282,-0.2342037125837484,117669.6372031667,0.4517868892583461,-2.761919903073871,1.507489772541156,-0.07265219837427139,0.03560260683298111,-0.2830085158348083,-0.03360417485237122,-0.003681659698486328,0.01212167739868164,XArbitraryCorrectedZVertical,-0.2862346470355988,0.6689037084579468,0.6242002844810486,-0.2846214473247528,-0.02343318611383438,-0.9979968070983887,0.05872488766908646,-14.45053100585938,-61.30915069580078,-12.338134765625,2
2017-12-04 17:17:03.200 -0800,68,C4D50155-580C-4885-BACB-A13DEF47355A,1512436621.214716,49.27715556849828,-122.907443947797,343.0692,-1,-1,10,65,-9999,117669.6833151667,-0.040985107421875,-1.120086669921875,0.0074005126953125,117669.6743121667,-0.1421653979428279,-0.02286670006774736,-0.1037168086531359,117669.6722981667,0.509987668443415,-2.820335797137063,1.515912652995604,-0.2046143561601639,-0.03546230494976044,-0.09950201213359833,-0.05675861239433289,-0.1070355176925659,-0.02826559543609619,XArbitraryCorrectedZVertical,-0.287222683429718,0.6659634113311768,0.627361536026001,-0.2835685014724731,-0.01730756461620331,-0.9984942674636841,0.05200827121734619,-14.19028854370117,-61.15393829345703,-12.706787109375,2
2017-12-04 17:17:03.230 -0800,69,C4D50155-580C-4885-BACB-A13DEF47355A,1512436621.214716,49.27715556849828,-122.907443947797,343.0692,-1,-1,10,65,-9999,117669.7133751667,-0.0153961181640625,-1.061981201171875,0.02899169921875,117669.7043721667,0.2250291226284254,0.1003319309076452,-0.02218679504145013,117669.7073631667,0.5562462166288265,-2.864619638552595,1.515164324357261,0.2234360575675964,0.1056221053004265,-0.01467825844883919,-0.009877562522888184,-0.09515976905822754,-0.008657932281494141,XArbitraryCorrectedZVertical,-0.2887675762176514,0.6658337116241455,0.6269127130508423,-0.283296525478363,-0.01519262511283159,-0.9984529614448547,0.05344248935580254,-14.05051040649414,-61.42105102539062,-12.6488037109375,2
2017-12-04 17:17:03.262 -0800,70,C4D50155-580C-4885-BACB-A13DEF47355A,1512436621.214716,49.27715556849828,-122.907443947797,343.0692,-1,-1,10,65,-9999,117669.7434341667,0.00372314453125,-0.9270782470703125,0.062835693359375,117669.7344321667,0.3092228299624085,-0.1108301119247376,-0.1306823799546243,117669.7424581667,0.6371980913708621,-2.947270941966896,1.505710663469183,0.3280353844165802,-0.1246543303132057,-0.1356039643287659,0.02901604771614075,0.04014956951141357,-0.000423431396484375,XArbitraryCorrectedZVertical,-0.2904939353466034,0.6689561009407043,0.6240902543067932,-0.2803926169872284,-0.01255183573812246,-0.9978826642036438,0.06377798318862915,-13.97196960449219,-61.47045516967773,-12.42825317382812,2
2017-12-04 17:17:03.290 -0800,71,C4D50155-580C-4885-BACB-A13DEF47355A,1512436621.214716,49.27715556849828,-122.907443947797,343.0692,-1,-1,10,65,-9999,117669.7734941667,0.004241943359375,-0.931182861328125,0.1338043212890625,117669.7644921667,0.1783710729624552,0.1598503854776081,-0.02077851545701623,117669.7424581667,0.6371980913708621,-2.947270941966896,1.505710663469183,0.3280353844165802,-0.1246543303132057,-0.1356039643287659,0.02901604771614075,0.04014956951141357,-0.000423431396484375,XArbitraryCorrectedZVertical,-0.2904939353466034,0.6689561009407043,0.6240902543067932,-0.2803926169872284,-0.01255183573812246,-0.9978826642036438,0.06377798318862915,-13.97196960449219,-61.47045516967773,-12.42825317382812,2
2017-12-04 17:17:03.320 -0800,72,C4D50155-580C-4885-BACB-A13DEF47355A,1512436621.214716,49.27715556849828,-122.907443947797,343.0692,-1,-1,10,65,-9999,117669.8035541667,0.0055694580078125,-0.904998779296875,0.0439605712890625,117669.7945511667,-0.05830192258401468,0.2984359622831515,-0.103518669468034,117669.7774921667,0.6844529850226271,-2.99265745579252,1.497981234443811,0.109679140150547,0.2936396896839142,0.01557956822216511,0.01486474275588989,0.06633514165878296,0.06553590297698975,XArbitraryCorrectedZVertical,-0.2928160130977631,0.6709817051887512,0.6213588118553162,-0.2792015373706818,-0.0107906274497509,-0.9973501563072205,0.07191533595323563,-13.75508499145508,-61.60191345214844,-11.4993896484375,2
2017-12-04 17:17:03.350 -0800,73,C4D50155-580C-4885-BACB-A13DEF47355A,1512436621.214716,49.27715556849828,-122.907443947797,343.0692,-1,-1,10,65,-9999,117669.8336141667,-0.002532958984375,-1.068893432617188,0.0663299560546875,117669.8246111667,0.150470998434458,1.038632825130903e-05,-0.2226844756047196,117669.8125871667,0.7238375242210122,-3.022537118433825,1.498301129333605,0.03998100012540817,0.1052600666880608,-0.1850389242172241,0.01333051919937134,0.06503087282180786,-0.03991365432739258,XArbitraryCorrectedZVertical,-0.2967067360877991,0.6692631244659424,0.620352566242218,-0.2814482450485229,-0.008600293658673763,-0.9973734021186829,0.071896031498909,-13.76011276245117,-61.71201705932617,-11.54641723632812,2
2017-12-04 17:17:03.380 -0800,74,C4D50155-580C-4885-BACB-A13DEF47355A,1512436621.214716,49.27715556849828,-122.907443947797,343.0692,-1,-1,10,65,-9999,117669.8636741667,0.0900115966796875,-1.0648193359375,0.0637664794921875,117669.8546711667,0.2777815501329329,-0.2419686913740924,-0.3623630137216315,117669.8476521667,0.8372787401642202,-3.136333880774987,1.492888796953836,0.2231028974056244,-0.09980001300573349,-0.2757404148578644,0.03104886412620544,-0.07389509677886963,-0.01278269290924072,XArbitraryCorrectedZVertical,-0.3000591695308685,0.6699793338775635,0.6196090579032898,-0.2778055667877197,-0.0004092184826731682,-0.9969667196273804,0.07781562954187393,-13.1332950592041,-61.84868240356445,-11.12384033203125,2
2017-12-04 17:17:03.410 -0800,75,C4D50155-580C-4885-BACB-A13DEF47355A,1512436621.214716,49.27715556849828,-122.907443947797,343.0692,-1,-1,10,65,-9999,117669.8937331667,-0.0256805419921875,-1.03302001953125,0.09844970703125,117669.8847311667,0.2446235966647924,-0.09227613492626453,-0.3721863497184978,117669.8827471667,0.9893160227528178,2.987754156555277,1.481499061973312,0.282684862613678,-0.162345215678215,-0.3949671983718872,0.01751074194908142,-0.05439937114715576,0.008903384208679199,XArbitraryCorrectedZVertical,-0.3036583662033081,0.672196090221405,0.6191152334213257,-0.26951664686203,0.01366296783089638,-0.9960156679153442,0.08811197429895401,-12.59842491149902,-61.98445129394531,-10.73690795898438,2
2017-12-04 17:17:03.440 -0800,76,C4D50155-580C-4885-BACB-A13DEF47355A,1512436621.214716,49.27715556849828,-122.907443947797,343.0692,-1,-1,10,65,-9999,117669.9237931667,0.005828857421875,-0.9725189208984375,0.10638427734375,117669.9147911667,0.08637616784730298,-0.02628220416577398,-0.2813624365346535,117669.9177811667,1.093293981240155,2.881925830896015,1.472070694472267,0.1254738718271255,-0.03165694326162338,-0.2848243117332458,-0.0381833016872406,0.02955442667007446,0.009714126586914062,XArbitraryCorrectedZVertical,-0.3077674508094788,0.6729819774627686,0.6185731887817383,-0.2640847265720367,0.02530486322939396,-0.9951305985450745,0.09525109082460403,-12.08998107910156,-62.12543869018555,-9.816253662109375,2
2017-12-04 17:17:03.470 -0800,77,C4D50155-580C-4885-BACB-A13DEF47355A,1512436621.214716,49.27715556849828,-122.907443947797,343.0692,-1,-1,10,65,-9999,117669.9538531667,0.10308837890625,-1.135040283203125,0.086395263671875,117669.9448501667,-0.2970143668932672,0.0306652346878264,-0.1925944837123504,117669.9177811667,1.093293981240155,2.881925830896015,1.472070694472267,0.1254738718271255,-0.03165694326162338,-0.2848243117332458,-0.0381833016872406,0.02955442667007446,0.009714126586914062,XArbitraryCorrectedZVertical,-0.3077674508094788,0.6729819774627686,0.6185731887817383,-0.2640847265720367,0.02530486322939396,-0.9951305985450745,0.09525109082460403,-12.08998107910156,-62.12543869018555,-9.816253662109375,2
2017-12-04 17:17:03.501 -0800,78,C4D50155-580C-4885-BACB-A13DEF47355A,1512436621.214716,49.27715556849828,-122.907443947797,343.0692,-1,-1,10,65,-9999,117669.9839131667,-0.036407470703125,-1.135345458984375,0.0641326904296875,117669.9749101667,-0.1509365189930039,0.00568371839844711,-0.02830034763983603,117669.9528771667,1.18625905031704,2.789408109751638,1.474494953004185,-0.3127061426639557,0.01582508161664009,-0.1790132373571396,0.06659695506095886,-0.07531207799911499,0.03136909008026123,XArbitraryCorrectedZVertical,-0.3097588717937469,0.6702023148536682,0.6213017702102661,-0.2624151408672333,0.03316500037908554,-0.995366632938385,0.09024340659379959,-11.21933937072754,-61.93019866943359,-10.12149047851562,2
2017-12-04 17:17:03.531 -0800,79,C4D50155-580C-4885-BACB-A13DEF47355A,1512436621.214716,49.27715556849828,-122.907443947797,343.0692,-1,-1,10,65,-9999,117670.0139731667,0.1416015625,-1.06829833984375,0.0976715087890625,117670.0049701667,-0.31481946299321,-0.347087121708937,-0.1481037145414866,117669.9879111667,1.238028026644018,2.738235284498327,1.480576799359158,-0.1452978402376175,-0.04420023411512375,-0.02398076467216015,-0.06802746653556824,-0.1425405740737915,-0.02053689956665039,XArbitraryCorrectedZVertical,-0.3096482157707214,0.6674914956092834,0.6240227818489075,-0.2629971206188202,0.03535839915275574,-0.9959329962730408,0.08285383135080338,-11.15728378295898,-62.08754730224609,-10.7625732421875,2
2017-12-04 17:17:03.561 -0800,80,C4D50155-580C-4885-BACB-A13DEF47355A,1512436621.214716,49.27715556849828,-122.907443947797,343.0692,-1,-1,10,65,-9999,117670.0440331667,-0.0678863525390625,-1.032501220703125,0.136871337890625,117670.0350301667,0.1503650046230729,0.1080945128530082,-0.1320267436728962,117670.0230061667,1.32602593264308,2.641388484690897,1.486294032518604,-0.122526541352272,-0.326151043176651,-0.2316248565912247,0.1053245365619659,-0.06414556503295898,0.04087948799133301,XArbitraryCorrectedZVertical,-0.3071321845054626,0.6653530597686768,0.6288438439369202,-0.2598644196987152,0.04047319293022156,-0.996431827545166,0.07404974848031998,-11.12824440002441,-62.16062164306641,-11.14434814453125,2
2017-12-04 17:17:03.591 -0800,81,C4D50155-580C-4885-BACB-A13DEF47355A,1512436621.214716,49.27715556849828,-122.907443947797,343.0692,-1,-1,10,65,-9999,117670.0740921667,-0.0154266357421875,-0.9869842529296875,0.0440826416015625,117670.0650901667,-0.005431783359325614,0.3818086170530631,0.1103629934695377,117670.0580711667,1.323342255693824,2.650093609006263,1.480939851468202,0.1593730449676514,0.5077426433563232,0.09784334897994995,-0.1275506913661957,-0.02057486772537231,0.02020001411437988,XArbitraryCorrectedZVertical,-0.3104310631752014,0.6657211184501648,0.6266130805015564,-0.2603903412818909,0.04234563186764717,-0.9959656000137329,0.07910410314798355,-10.7486400604248,-62.10793304443359,-11.07138061523438,2
2017-12-04 17:17:03.621 -0800,82,C4D50155-580C-4885-BACB-A13DEF47355A,1512436621.214716,49.27715556849828,-122.907443947797,343.0692,-1,-1,10,65,-9999,117670.1041521667,0.2644500732421875,-0.9549407958984375,0.0992584228515625,117670.0951801667,-0.03871650329535395,-0.1069703925568857,-0.06903872283477815,117670.0931661667,1.290073169485331,2.691633063244485,1.482526292100903,-0.03002457693219185,-0.03604333102703094,0.03134632110595703,0.06652188301086426,0.05224382877349854,-0.03034436702728271,XArbitraryCorrectedZVertical,-0.3119337856769562,0.6651185750961304,0.6248895525932312,-0.2642474770545959,0.03833651542663574,-0.996106743812561,0.07937081158161163,-10.8707447052002,-62.14349365234375,-10.99395751953125,2
2017-12-04 17:17:03.651 -0800,83,C4D50155-580C-4885-BACB-A13DEF47355A,1512436621.214716,49.27715556849828,-122.907443947797,343.0692,-1,-1,10,65,-9999,117670.1342121667,-0.14373779296875,-1.02801513671875,0.041656494140625,117670.1252401667,0.08859191787424892,-0.07311655509590746,-0.187845002224303,117670.1282001667,1.336536127249815,2.642197126446196,1.478280076074972,0.1107398420572281,-0.05827080458402634,-0.1926326155662537,-0.1098048686981201,-0.02899587154388428,-0.02863359451293945,XArbitraryCorrectedZVertical,-0.3130750358104706,0.6652297973632812,0.6255099773406982,-0.261131763458252,0.04423785582184792,-0.9957234263420105,0.08109332621097565,-10.49984741210938,-62.35115814208984,-10.74838256835938,2
2017-12-04 17:17:03.681 -0800,84,C4D50155-580C-4885-BACB-A13DEF47355A,1512436621.214716,49.27715556849828,-122.907443947797,343.0692,-1,-1,10,65,-9999,117670.1642721667,0.0374298095703125,-0.9577484130859375,0.122406005859375,117670.1553001667,0.06633960906998283,-0.4657213608920428,-0.1381546773411686,117670.1282001667,1.336536127249815,2.642197126446196,1.478280076074972,0.1107398420572281,-0.05827080458402634,-0.1926326155662537,-0.1098048686981201,-0.02899587154388428,-0.02863359451293945,XArbitraryCorrectedZVertical,-0.3130750358104706,0.6652297973632812,0.6255099773406982,-0.261131763458252,0.04423785582184792,-0.9957234263420105,0.08109332621097565,-10.49984741210938,-62.35115814208984,-10.74838256835938,2
2017-12-04 17:17:03.711 -0800,85,C4D50155-580C-4885-BACB-A13DEF47355A,1512436621.214716,49.27715556849828,-122.907443947797,343.0692,-1,-1,10,65,-9999,117670.1943321667,0.1544342041015625,-0.97454833984375,0.088623046875,117670.1853591667,0.08072414106582781,-0.05166319461866516,-0.3272593547610791,117670.1632951667,1.370048385681833,2.5936029180018,1.472710240834029,0.05214706063270569,-0.4009727239608765,-0.1254157274961472,-0.07803633809089661,0.02786248922348022,0.02616024017333984,XArbitraryCorrectedZVertical,-0.3105663955211639,0.6673372387886047,0.6275235414505005,-0.2538165152072906,0.05101302266120911,-0.9951934218406677,0.08358095586299896,-10.35594177246094,-61.94234085083008,-10.630859375,2
2017-12-04 17:17:03.741 -0800,86,C4D50155-580C-4885-BACB-A13DEF47355A,1512436621.214716,49.27715556849828,-122.907443947797,343.0692,-1,-1,10,65,-9999,117670.224391125,-0.1106719970703125,-1.084609985351562,0.0833282470703125,117670.215419125,0.1477279425116764,0.3394347946327034,-0.152787682266718,117670.1983601667,1.432528082212833,2.527691162194039,1.466357921230345,0.09345494210720062,0.02790253236889839,-0.3235577940940857,0.0516144335269928,-0.005189359188079834,-0.01158392429351807,XArbitraryCorrectedZVertical,-0.3125430643558502,0.6670237183570862,0.6285961270332336,-0.2495243549346924,0.0600493922829628,-0.9945512413978577,0.08520761877298355,-9.849710464477539,-62.28497695922852,-10.64227294921875,2
2017-12-04 17:17:03.771 -0800,87,C4D50155-580C-4885-BACB-A13DEF47355A,1512436621.214716,49.27715556849828,-122.907443947797,343.0692,-1,-1,10,65,-9999,117670.254451125,0.1699066162109375,-0.947723388671875,0.0870513916015625,117670.245479125,0.0658477232166452,-0.006020874592451142,-0.3178525371587012,117670.233455125,1.458792971272996,2.510186481452232,1.458137577627422,0.1047050803899765,0.2175678610801697,-0.1899553835391998,-0.14971524477005,-0.07656019926071167,-0.01690411567687988,XArbitraryCorrectedZVertical,-0.3182372450828552,0.6664050817489624,0.6264525055885315,-0.2493712604045868,0.06635648757219315,-0.9936606884002686,0.0907413512468338,-9.126188278198242,-62.12778472900391,-9.9765625,2
2017-12-04 17:17:03.801 -0800,88,C4D50155-580C-4885-BACB-A13DEF47355A,1512436621.214716,49.27715556849828,-122.907443947797,343.0692,-1,-1,10,65,-9999,117670.284511125,0.1199798583984375,-0.931427001953125,0.145660400390625,117670.275539125,-0.1167660316784152,0.2044492789887291,-0.3068941619052432,117670.268489125,1.521149770809777,2.449532412524102,1.449563799368282,0.02085438929498196,0.08645577728748322,-0.359856516122818,0.1162365078926086,0.06988507509231567,0.04339694976806641,XArbitraryCorrectedZVertical,-0.3225848972797394,0.6652015447616577,0.6268479228019714,-0.2459816336631775,0.07716862112283707,-0.9926603436470032,0.09310822188854218,-8.485763549804688,-62.05620574951172,-10.113525390625,2
2017-12-04 17:17:03.831 -0800,89,C4D50155-580C-4885-BACB-A13DEF47355A,1512436621.214716,49.27715556849828,-122.907443947797,343.0692,-1,-1,10,65,-9999,117670.314571125,0.0576324462890625,-1.0069580078125,0.0222320556640625,117670.305599125,-0.112828015374515,-0.2319922236145466,-0.07815472324611937,117670.303585125,1.600122211145678,2.374774473608842,1.447269798823913,-0.1655099540948868,-0.08003436028957367,-0.1478082835674286,-0.04436370730400085,0.04506886005401611,-0.008492588996887207,XArbitraryCorrectedZVertical,-0.3260349035263062,0.6618632078170776,0.6288939118385315,-0.2452142536640167,0.08548614382743835,-0.9923803210258484,0.08872333168983459,-8.155817031860352,-62.08864593505859,-10.42315673828125,2
2017-12-04 17:17:03.861 -0800,90,C4D50155-580C-4885-BACB-A13DEF47355A,1512436621.214716,49.27715556849828,-122.907443947797,343.0692,-1,-1,10,65,-9999,117670.344631125,0.197113037109375,-1.009323120117188,0.104156494140625,117670.335659125,-0.007643538644636422,-0.1977756636130995,0.2865310995782793,117670.338619125,1.587586341778249,2.376725146756942,1.449909271275669,0.0122256726026535,-0.2508276700973511,0.2709008753299713,0.1246449053287506,-0.01225703954696655,0.002781391143798828,XArbitraryCorrectedZVertical,-0.3216572403907776,0.6633530259132385,0.6305148005485535,-0.2427961081266403,0.08350023627281189,-0.9927020668983459,0.08700123429298401,-8.158384323120117,-62.03015518188477,-10.4107666015625,2
2017-12-04 17:17:03.908 -0800,91,C4D50155-580C-4885-BACB-A13DEF47355A,1512436621.214716,49.27715556849828,-122.907443947797,343.0692,-1,-1,10,65,-9999,117670.374691125,0.0586700439453125,-0.9885711669921875,0.1155548095703125,117670.365718125,0.04870655317645919,0.2116334223453268,0.2991954958260421,117670.338619125,1.587586341778249,2.376725146756942,1.449909271275669,0.0122256726026535,-0.2508276700973511,0.2709008753299713,0.1246449053287506,-0.01225703954696655,0.002781391143798828,XArbitraryCorrectedZVertical,-0.3216572403907776,0.6633530259132385,0.6305148005485535,-0.2427961081266403,0.08350023627281189,-0.9927020668983459,0.08700123429298401,-8.158384323120117,-62.03015518188477,-10.4107666015625,2
2017-12-04 17:17:03.921 -0800,92,C4D50155-580C-4885-BACB-A13DEF47355A,1512436621.214716,49.27715556849828,-122.907443947797,343.0692,-1,-1,10,65,-9999,117670.404750125,-0.052490234375,-0.9703521728515625,0.0591583251953125,117670.395778125,-0.04293308624927641,-0.0505758259455858,-0.1668241391080896,117670.373714125,1.49906570037451,2.468037922245272,1.457170227590495,0.05995211750268936,0.1841311454772949,0.2398632019758224,0.01085180044174194,-0.01104140281677246,0.01862144470214844,XArbitraryCorrectedZVertical,-0.3187187314033508,0.6653773784637451,0.6279773116111755,-0.247659906744957,0.07072166353464127,-0.99355149269104,0.08861736953258514,-9.017621994018555,-62.36952972412109,-10.40582275390625,2
2017-12-04 17:17:03.952 -0800,93,C4D50155-580C-4885-BACB-A13DEF47355A,1512436621.214716,49.27715556849828,-122.907443947797,343.0692,-1,-1,10,65,-9999,117670.434810125,0.22265625,-0.9347381591796875,0.079803466796875,117670.425838125,-0.03630447829606918,0.1446575840909241,-0.1800563213002573,117670.408779125,1.517896411569325,2.44971546639809,1.456234801612969,-0.03775359690189362,-0.229794830083847,-0.2298261970281601,-0.06683731079101562,0.04840719699859619,-0.02874112129211426,XArbitraryCorrectedZVertical,-0.3195119500160217,0.6647728085517883,0.6284028291702271,-0.2471813261508942,0.07292557507753372,-0.9934449791908264,0.08802154660224915,-8.910295486450195,-62.25588607788086,-10.432861328125,2
2017-12-04 17:17:03.998 -0800,94,C4D50155-580C-4885-BACB-A13DEF47355A,1512436621.214716,49.27715556849828,-122.907443947797,343.0692,-1,-1,10,65,-9999,117670.464870125,-0.0133209228515625,-0.983306884765625,0.0689544677734375,117670.455898125,0.2473884905085127,0.123012476015196,0.3739094149437791,117670.443874125,1.557981836978382,2.410760783481624,1.452122692737684,0.1304341852664948,0.1165413558483124,-0.05890787020325661,0.1281749904155731,0.07614219188690186,-0.02890563011169434,XArbitraryCorrectedZVertical,-0.321855217218399,0.6636919379234314,0.6290076971054077,-0.2455014884471893,0.07902409881353378,-0.9929665327072144,0.08815553784370422,-8.841665267944336,-62.16832733154297,-10.34329223632812,2
2017-12-04 17:17:04.012 -0800,95,C4D50155-580C-4885-BACB-A13DEF47355A,1512436621.214716,49.27715556849828,-122.907443947797,343.0692,-1,-1,10,65,-9999,117670.494930125,-0.0443878173828125,-0.8847503662109375,0.0759735107421875,117670.485958125,0.2689062994841349,0.19254894365771,0.6605608894033299,117670.478908125,1.415439304423747,2.557598486684213,1.452884118582242,0.3239599168300629,0.1882958710193634,0.604222297668457,-0.03422090411186218,0.1160117387771606,-0.02256417274475098,XArbitraryCorrectedZVertical,-0.3201227784156799,0.6682752966880798,0.6232336759567261,-0.2500182390213013,0.06486056745052338,-0.9930564165115356,0.09814093261957169,-9.115036010742188,-62.27408599853516,-10.08956909179688,2
2017-12-04 17:17:04.042 -0800,96,C4D50155-580C-4885-BACB-A13DEF47355A,1512436621.214716,49.27715556849828,-122.907443947797,343.0692,-1,-1,10,65,-9999,117670.525020125,0.0133514404296875,-1.002517700195312,0.125244140625,117670.516017125,-0.02133964349869593,0.09498536870320214,0.3582399077219709,117670.514003125,1.223343382755836,2.754221754940418,1.456669452861511,0.05163359642028809,0.1466225981712341,0.4948633015155792,-0.109851598739624,0.09404999017715454,0.01426482200622559,XArbitraryCorrectedZVertical,-0.3156420588493347,0.673119843006134,0.6172374486923218,-0.257483184337616,0.04301811754703522,-0.9934945702552795,0.1054404675960541,-10.81876182556152,-62.40621185302734,-9.3094482421875,2
2017-12-04 17:17:04.089 -0800,97,C4D50155-580C-4885-BACB-A13DEF47355A,1512436621.214716,49.27715556849828,-122.907443947797,343.0692,-1,-1,10,65,-9999,117670.555080125,0.1519927978515625,-1.217910766601562,0.0818023681640625,117670.546077125,-0.05969821794354323,-0.3242260142794788,-0.2028902644865967,117670.549068125,1.203701650248462,2.768879445683537,1.46021917904431,-0.06706656515598297,-0.3221087455749512,-0.1742226332426071,0.1146766245365143,-0.2113686800003052,-0.004663586616516113,XArbitraryCorrectedZVertical,-0.312689334154129,0.673508882522583,0.6184028387069702,-0.257272869348526,0.04018481820821762,-0.9938925504684448,0.1027776673436165,-11.33547019958496,-62.61372375488281,-9.27069091796875,2
2017-12-04 17:17:04.102 -0800,98,C4D50155-580C-4885-BACB-A13DEF47355A,1512436621.214716,49.27715556849828,-122.907443947797,343.0692,-1,-1,10,65,-9999,117670.585140125,0.08599853515625,-1.046661376953125,0.15887451171875,117670.576137125,0.09481998639950823,-0.1134458687474134,-0.1899542258076458,117670.549068125,1.203701650248462,2.768879445683537,1.46021917904431,-0.06706656515598297,-0.3221087455749512,-0.1742226332426071,0.1146766245365143,-0.2113686800003052,-0.004663586616516113,XArbitraryCorrectedZVertical,-0.312689334154129,0.673508882522583,0.6184028387069702,-0.257272869348526,0.04018481820821762,-0.9938925504684448,0.1027776673436165,-11.33547019958496,-62.61372375488281,-9.27069091796875,2
2017-12-04 17:17:04.134 -0800,99,C4D50155-580C-4885-BACB-A13DEF47355A,1512436621.214716,49.27715556849828,-122.907443947797,343.0692,-1,-1,10,65,-9999,117670.615200125,0.051788330078125,-1.012298583984375,0.10791015625,117670.606197125,-0.1123670221898223,0.2722408434850231,-0.2396477464840883,117670.584163125,1.26197921883931,2.701569918401379,1.453180478374739,0.07499663531780243,-0.07309109717607498,-0.1688690036535263,0.03857776522636414,-0.07448995113372803,0.02888858318328857,XArbitraryCorrectedZVertical,-0.3132555484771729,0.6745030879974365,0.6197084188461304,-0.2507549226284027,0.04998426139354706,-0.9930912256240845,0.1061669066548347,-11.1301383972168,-62.66340637207031,-9.338531494140625,2
2017-12-04 17:17:04.183 -0800,100,C4D50155-580C-4885-BACB-A13DEF47355A,1512436621.214716,49.27715556849828,-122.907443947797,343.0692,-1,-1,10,65,-9999,117670.645259125,0.1059722900390625,-1.016571044921875,0.100677490234375,117670.636257125,-0.04174851219640916,0.1280338662505404,-0.4003450171883416,117670.619197125,1.326957624876246,2.643062505705806,1.451751925593386,-0.09390542656183243,0.2987957000732422,-0.2710643708705902,0.01186448335647583,-0.02189368009567261,-0.004240870475769043,XArbitraryCorrectedZVertical,-0.3173657059669495,0.6718876361846924,0.6204373836517334,-0.2508055567741394,0.05678479000926018,-0.9929226040840149,0.1043079718947411,-10.51882362365723,-62.6684455871582,-9.338531494140625,2
2017-12-04 17:17:04.192 -0800,101,C4D50155-580C-4885-BACB-A13DEF47355A,1512436621.214716,49.27715556849828,-122.907443947797,343.0692,-1,-1,10,65,-9999,117670.675319125,0.08697509765625,-1.029205322265625,0.0454254150390625,117670.666316125,0.07350803977614911,0.06176829305886182,-0.2537364012828255,117670.654293125,1.424115760602353,2.553546134801671,1.446484514347512,-0.05788423120975494,0.1895319074392319,-0.3429824113845825,0.04193434119224548,-0.02863657474517822,0.007827043533325195,XArbitraryCorrectedZVertical,-0.3236093521118164,0.6684756278991699,0.6214627027511597,-0.2494023889303207,0.06878344714641571,-0.9922832250595093,0.1031653583049774,-9.675390243530273,-62.7058219909668,-9.36431884765625,2
2017-12-04 17:17:04.252 -0800,102,C4D50155-580C-4885-BACB-A13DEF47355A,1512436621.214716,49.27715556849828,-122.907443947797,343.0692,-1,-1,10,65,-9999,117670.705379125,0.21624755859375,-0.995849609375,0.1735992431640625,117670.696376125,-0.1053232274226717,0.07891132731181089,-0.1049173616725436,117670.689327125,1.473780001867938,2.504162114306936,1.439793149274471,0.04855605959892273,-0.1992376297712326,-0.2153948992490768,-0.00823625922203064,-0.03891837596893311,0.008352041244506836,XArbitraryCorrectedZVertical,-0.3268117010593414,0.6675938963890076,0.6219868063926697,-0.2462613135576248,0.07774003595113754,-0.9914313554763794,0.1049750000238419,-9.034183502197266,-62.65090560913086,-9.339385986328125,2
2017-12-04 17:17:04.255 -0800,103,C4D50155-580C-4885-BACB-A13DEF47355A,1512436621.214716,49.27715556849828,-122.907443947797,343.0692,-1,-1,10,65,-9999,117670.735439125,-0.0225677490234375,-1.035446166992188,0.0716705322265625,117670.726436125,-0.06423677707325627,0.176350266327303,-0.0507470672036779,117670.724422125,1.509342300234165,2.473771770319557,1.440039929240355,-0.08307237923145294,0.2613377571105957,-0.06888482719659805,0.03096780180931091,0.03052604198455811,0.006301641464233398,XArbitraryCorrectedZVertical,-0.3291334807872772,0.6654749512672424,0.6226294636726379,-0.2472779899835587,0.08074178546667099,-0.9914635419845581,0.102371521294117,-8.775938034057617,-62.97388458251953,-9.56024169921875,2
2017-12-04 17:17:04.282 -0800,104,C4D50155-580C-4885-BACB-A13DEF47355A,1512436621.214716,49.27715556849828,-122.907443947797,343.0692,-1,-1,10,65,-9999,117670.765499125,0.11993408203125,-0.95733642578125,0.08111572265625,117670.756496125,0.1423547486963326,-0.05746515736951179,-0.09428762049760138,117670.759487125,1.511005284744789,2.474614754493246,1.43798069811084,0.1460298150777817,-0.03309881687164307,-0.07812726497650146,0.01906391978263855,0.01087677478790283,-0.01529884338378906,XArbitraryCorrectedZVertical,-0.3305730223655701,0.6653897166252136,0.6219043135643005,-0.2474120408296585,0.08191872388124466,-0.9911929368972778,0.104043997824192,-8.473844528198242,-62.4474983215332,-9.431365966796875,2
2017-12-04 17:17:04.321 -0800,105,C4D50155-580C-4885-BACB-A13DEF47355A,1512436621.214716,49.27715556849828,-122.907443947797,343.0692,-1,-1,10,65,-9999,117670.795558125,-0.0150299072265625,-1.047378540039062,0.121734619140625,117670.786556125,-0.03133821549528942,-0.002972886724855454,-0.09098530074590312,117670.759487125,1.511005284744789,2.474614754493246,1.43798069811084,0.1460298150777817,-0.03309881687164307,-0.07812726497650146,0.01906391978263855,0.01087677478790283,-0.01529884338378906,XArbitraryCorrectedZVertical,-0.3305730223655701,0.6653897166252136,0.6219043135643005,-0.2474120408296585,0.08191872388124466,-0.9911929368972778,0.104043997824192,-8.473844528198242,-62.4474983215332,-9.431365966796875,2
2017-12-04 17:17:04.342 -0800,106,C4D50155-580C-4885-BACB-A13DEF47355A,1512436621.214716,49.27715556849828,-122.907443947797,343.0692,-1,-1,10,65,-9999,117670.825618125,0.038818359375,-1.046035766601562,0.098052978515625,117670.816616125,0.006315153892904897,0.1475689517945987,-0.06546529328410981,117670.794582125,1.526570129781054,2.457209730907937,1.432782909941471,-0.02174474112689495,-0.03697028011083603,-0.06634627282619476,-0.1010568737983704,-0.03267157077789307,0.03758740425109863,XArbitraryCorrectedZVertical,-0.3319211900234222,0.6656761765480042,0.6219221353530884,-0.2447776198387146,0.08697301149368286,-0.9904912710189819,0.1065928936004639,-8.251209259033203,-62.7043342590332,-9.1702880859375,2
2017-12-04 17:17:04.374 -0800,107,C4D50155-580C-4885-BACB-A13DEF47355A,1512436621.214716,49.27715556849828,-122.907443947797,343.0692,-1,-1,10,65,-9999,117670.855678125,0.10870361328125,-1.01397705078125,0.1058349609375,117670.846675125,-0.263094483037255,0.3563373454392182,-0.2018170105672948,117670.829616125,1.534844080670656,2.45088867502596,1.431405784011423,-0.04856749996542931,0.2952075004577637,-0.07773913443088531,-0.06159758567810059,-0.05864936113357544,0.006524443626403809,XArbitraryCorrectedZVertical,-0.3331299722194672,0.665259838104248,0.6217132806777954,-0.2447980046272278,0.08851409703493118,-0.9903008341789246,0.1070924624800682,-7.959047317504883,-62.71230316162109,-8.98712158203125,2
2017-12-04 17:17:04.408 -0800,108,C4D50155-580C-4885-BACB-A13DEF47355A,1512436621.214716,49.27715556849828,-122.907443947797,343.0692,-1,-1,10,65,-9999,117670.885738125,0.253326416015625,-1.0701904296875,0.0760345458984375,117670.876735125,-0.3197087604384865,0.3408057899618762,-0.3688094614562774,117670.864711125,1.607014600195586,2.392660783891924,1.433351927186673,-0.2710182666778564,0.3956858515739441,-0.2443270981311798,0.02730461955070496,-0.0219275951385498,-0.01212358474731445,XArbitraryCorrectedZVertical,-0.3383188545703888,0.6600873470306396,0.6229133009910583,-0.2486042380332947,0.09328560531139374,-0.9905693531036377,0.1003499031066895,-7.739606857299805,-62.81514358520508,-9.354400634765625,2
2017-12-04 17:17:04.433 -0800,109,C4D50155-580C-4885-BACB-A13DEF47355A,1512436621.214716,49.27715556849828,-122.907443947797,343.0692,-1,-1,10,65,-9999,117670.915798125,-0.0312042236328125,-1.099853515625,0.096038818359375,117670.906795125,-0.242560978400526,0.2089793160029539,-0.3113352493390593,117670.899745125,1.738453547907437,2.274335305588226,1.43284451768919,-0.4622465372085571,0.288175493478775,-0.4278545379638672,0.1177647113800049,-0.125985860824585,-0.0134437084197998,XArbitraryCorrectedZVertical,-0.3446523249149323,0.6524527072906494,0.626648485660553,-0.2506623566150665,0.1048610508441925,-0.99049973487854,0.08895952254533768,-7.065723419189453,-62.54717254638672,-9.99725341796875,2
2017-12-04 17:17:04.496 -0800,110,C4D50155-580C-4885-BACB-A13DEF47355A,1512436621.214716,49.27715556849828,-122.907443947797,343.0692,-1,-1,10,65,-9999,117670.945857125,0.013946533203125,-0.9432220458984375,0.02349853515625,117670.936855125,-0.1898831194065407,0.04895396084172755,0.1774064760156285,117670.934871125,1.800416856213206,2.219080939275736,1.433110735590192,-0.143975704908371,0.05427606776356697,0.1007124185562134,-0.144118070602417,0.003948807716369629,-0.01835966110229492,XArbitraryCorrectedZVertical,-0.3473818302154541,0.6486623287200928,0.6284468173980713,-0.2522249817848206,0.1094043254852295,-0.9905363321304321,0.08287390321493149,-6.111827850341797,-62.26576232910156,-10.51361083984375,2
2017-12-04 17:17:04.500 -0800,111,C4D50155-580C-4885-BACB-A13DEF47355A,1512436621.214716,49.27715556849828,-122.907443947797,343.0692,-1,-1,10,65,-9999,117670.975917125,0.1554107666015625,-1.021896362304688,0.2052459716796875,117670.966915125,-0.1914232254649335,-0.3684821589583066,0.4741555920643238,117670.969905125,1.791745321055444,2.221911180112333,1.447936343774454,-0.2104425579309464,-0.3790693879127502,0.4951315522193909,-0.0132632851600647,-0.0678863525390625,0.04965817928314209,XArbitraryCorrectedZVertical,-0.340490847826004,0.64900141954422,0.6304717659950256,-0.2556721568107605,0.09747654944658279,-0.9924622178077698,0.0742737203836441,-7.081354141235352,-62.12978744506836,-10.9210205078125,2
2017-12-04 17:17:04.523 -0800,112,C4D50155-580C-4885-BACB-A13DEF47355A,1512436621.214716,49.27715556849828,-122.907443947797,343.0692,-1,-1,10,65,-9999,117671.005977125,0.1575469970703125,-0.956207275390625,0.1076202392578125,117670.996974125,0.4466922759550996,-0.076663086719566,0.2197107899315371,117670.969905125,1.791745321055444,2.221911180112333,1.447936343774454,-0.2104425579309464,-0.3790693879127502,0.4951315522193909,-0.0132632851600647,-0.0678863525390625,0.04965817928314209,XArbitraryCorrectedZVertical,-0.340490847826004,0.64900141954422,0.6304717659950256,-0.2556721568107605,0.09747654944658279,-0.9924622178077698,0.0742737203836441,-7.081354141235352,-62.12978744506836,-10.9210205078125,2
2017-12-04 17:17:04.573 -0800,113,C4D50155-580C-4885-BACB-A13DEF47355A,1512436621.214716,49.27715556849828,-122.907443947797,343.0692,-1,-1,10,65,-9999,117671.036037125,-0.0696868896484375,-0.96734619140625,0.01544189453125,117671.027034125,0.4374159532461356,0.02230743623883072,0.7281391346963086,117671.005001125,1.691989868297448,2.311156507676988,1.451439122342067,0.4746312499046326,-0.006735572125762701,0.2619572281837463,0.18063685297966,0.03812772035598755,0.1120313405990601,XArbitraryCorrectedZVertical,-0.3349151611328125,0.6542112231254578,0.6285138130187988,-0.2545776069164276,0.08790255337953568,-0.992885410785675,0.08032097667455673,-7.974615097045898,-62.48519515991211,-10.63351440429688,2
2017-12-04 17:17:04.583 -0800,114,C4D50155-580C-4885-BACB-A13DEF47355A,1512436621.214716,49.27715556849828,-122.907443947797,343.0692,-1,-1,10,65,-9999,117671.066097125,0.2142333984375,-0.8432769775390625,0.1109619140625,117671.057094125,0.3177478749278611,-0.4524036912288836,0.4950624718858818,117671.040035125,1.461021819589647,2.542694701523201,1.452646850183893,0.4620530009269714,-0.05518173053860664,0.7348731160163879,-0.103451669216156,0.04045277833938599,-0.03829169273376465,XArbitraryCorrectedZVertical,-0.3307289183139801,0.6627953052520752,0.6198077201843262,-0.2591505646705627,0.0664491206407547,-0.993028461933136,0.09735846519470215,-8.529245376586914,-62.53102874755859,-9.931549072265625,2
2017-12-04 17:17:04.614 -0800,115,C4D50155-580C-4885-BACB-A13DEF47355A,1512436621.214716,49.27715556849828,-122.907443947797,343.0692,-1,-1,10,65,-9999,117671.096157125,-0.039093017578125,-1.081573486328125,0.0970916748046875,117671.087154125,0.2277468785208513,0.081402448195471,0.5510533032759257,117671.075130125,1.268038268283669,2.72239279825677,1.450855998371249,0.2355664074420929,-0.3342690765857697,0.3960690796375275,0.1721539497375488,0.1464565396308899,0.01259565353393555,XArbitraryCorrectedZVertical,-0.3223174512386322,0.6713845729827881,0.6150399446487427,-0.2589979469776154,0.04870176315307617,-0.9928157925605774,0.1092915683984756,-10.31260871887207,-62.94832611083984,-8.860565185546875,2
2017-12-04 17:17:04.656 -0800,116,C4D50155-580C-4885-BACB-A13DEF47355A,1512436621.214716,49.27715556849828,-122.907443947797,343.0692,-1,-1,10,65,-9999,117671.126216125,0.006317138671875,-0.88916015625,0.0759735107421875,117671.117214125,0.4352326937844886,-0.4607974423525953,0.2653669583954196,117671.110195125,1.099098838001519,2.889771285659832,1.448527561929178,0.3390626013278961,-0.1108134090900421,0.5133799314498901,-0.1119175255298615,-0.03340548276901245,-0.0573577880859375,XArbitraryCorrectedZVertical,-0.3171465992927551,0.67710942029953,0.609678328037262,-0.263122171163559,0.03038981556892395,-0.9925344586372375,0.1181182637810707,-11.23441314697266,-63.21522903442383,-8.224395751953125,2
2017-12-04 17:17:04.673 -0800,117,C4D50155-580C-4885-BACB-A13DEF47355A,1512436621.214716,49.27715556849828,-122.907443947797,343.0692,-1,-1,10,65,-9999,117671.156276125,-0.1148223876953125,-0.9689788818359375,0.1531829833984375,117671.147274125,-0.2006854334201201,0.2176830590775508,0.1754868695018993,117671.145290125,1.021662593555859,2.955744811359073,1.44253758663825,-0.1111829504370689,0.03184550628066063,0.1640141308307648,0.001374721527099609,0.08268272876739502,0.1511062383651733,XArbitraryCorrectedZVertical,-0.312115877866745,0.6822282671928406,0.6076211333274841,-0.2606619894504547,0.02363445237278938,-0.9917861223220825,0.1257034540176392,-12.00342178344727,-63.02836608886719,-7.805419921875,2
2017-12-04 17:17:04.732 -0800,118,C4D50155-580C-4885-BACB-A13DEF47355A,1512436621.214716,49.27715556849828,-122.907443947797,343.0692,-1,-1,10,65,-9999,117671.186336125,-0.028289794921875,-0.9934539794921875,0.06866455078125,117671.177333125,-0.09994923465900084,0.2373891195635922,0.3241615657810989,117671.180324125,0.9567846785285283,3.029246234606132,1.450072908025824,-0.09953172504901886,0.2437776327133179,0.3370327651500702,-0.1505712568759918,-0.0291898250579834,-0.04983234405517578,XArbitraryCorrectedZVertical,-0.310966432094574,0.6805408000946045,0.6071298718452454,-0.2675023078918457,0.01350155100226402,-0.9927217960357666,0.1196718066930771,-12.48129272460938,-63.06140518188477,-7.963104248046875,2
2017-12-04 17:17:04.735 -0800,119,C4D50155-580C-4885-BACB-A13DEF47355A,1512436621.214716,49.27715556849828,-122.907443947797,343.0692,-1,-1,10,65,-9999,117671.216384375,0.2059478759765625,-0.9106292724609375,0.154815673828125,117671.207381375,0.04305239586611196,-0.3263783810724809,-0.3307454326279928,117671.180324125,0.9567846785285283,3.029246234606132,1.450072908025824,-0.09953172504901886,0.2437776327133179,0.3370327651500702,-0.1505712568759918,-0.0291898250579834,-0.04983234405517578,XArbitraryCorrectedZVertical,-0.310966432094574,0.6805408000946045,0.6071298718452454,-0.2675023078918457,0.01350155100226402,-0.9927217960357666,0.1196718066930771,-12.48129272460938,-63.06140518188477,-7.963104248046875,2
2017-12-04 17:17:04.763 -0800,120,C4D50155-580C-4885-BACB-A13DEF47355A,1512436621.214716,49.27715556849828,-122.907443947797,343.0692,-1,-1,10,65,-9999,117671.246444375,-0.1650238037109375,-0.9977874755859375,0.0517120361328125,117671.237441375,0.0216208733098083,0.02754933621243369,-0.006978547320443636,117671.215407375,0.9694786762687341,3.012039769480759,1.449137410185537,0.04189395159482956,-0.2786018550395966,-0.3348220586776733,0.276328831911087,0.1399170160293579,-0.02325153350830078,XArbitraryCorrectedZVertical,-0.3102235496044159,0.6811262369155884,0.6078099012374878,-0.2653217911720276,0.01567862369120121,-0.9926086664199829,0.1203432008624077,-12.817626953125,-63.10290145874023,-8.097137451171875,2
2017-12-04 17:17:04.813 -0800,121,C4D50155-580C-4885-BACB-A13DEF47355A,1512436621.214716,49.27715556849828,-122.907443947797,343.0692,-1,-1,10,65,-9999,117671.276503375,-0.16265869140625,-0.8585968017578125,0.154083251953125,117671.267501375,0.05875013259547502,-0.5754657020403551,0.1698601427507799,117671.250441375,1.001245883360867,2.979036254398595,1.447447970803089,0.1437620371580124,-0.1213479340076447,0.06945081055164337,-0.1726832389831543,0.04164236783981323,-0.1024773120880127,XArbitraryCorrectedZVertical,-0.311313271522522,0.6810218691825867,0.6082025766372681,-0.2634062469005585,0.019912239164114,-0.9924022555351257,0.1214134767651558,-12.52884483337402,-62.93698883056641,-8.098358154296875,2
2017-12-04 17:17:04.823 -0800,122,C4D50155-580C-4885-BACB-A13DEF47355A,1512436621.214716,49.27715556849828,-122.907443947797,343.0692,-1,-1,10,65,-9999,117671.306563375,0.2614288330078125,-1.116500854492188,0.17816162109375,117671.297561375,-0.1662289226044569,-0.2296712787245425,-0.1301849014629974,117671.285537375,0.9604945199300574,3.001288414362319,1.446085442386404,-0.1184604465961456,-0.6799006462097168,0.06751292198896408,-0.1021115779876709,0.1234287023544312,0.04648280143737793,XArbitraryCorrectedZVertical,-0.3044196665287018,0.6847706437110901,0.6096594929695129,-0.258327305316925,0.01739476807415485,-0.9922336935997009,0.1231643334031105,-13.03876495361328,-62.81601333618164,-7.297027587890625,2
2017-12-04 17:17:04.854 -0800,123,C4D50155-580C-4885-BACB-A13DEF47355A,1512436621.214716,49.27715556849828,-122.907443947797,343.0692,-1,-1,10,65,-9999,117671.336623375,-0.020294189453125,-1.035446166992188,0.0425567626953125,117671.327620375,0.1850947557665782,0.03479979228017441,-0.1273076222212758,117671.320601375,0.9920252797780883,2.962531230982413,1.448886937376492,0.04673291370272636,0.007561178877949715,-0.1202721670269966,0.137490838766098,-0.1407225131988525,-0.0267789363861084,XArbitraryCorrectedZVertical,-0.302862823009491,0.6841810345649719,0.6123852133750916,-0.2552534341812134,0.02165831252932549,-0.9925782680511475,0.1196591556072235,-13.10152244567871,-62.98488616943359,-7.6109619140625,2
2017-12-04 17:17:04.906 -0800,124,C4D50155-580C-4885-BACB-A13DEF47355A,1512436621.214716,49.27715556849828,-122.907443947797,343.0692,-1,-1,10,65,-9999,117671.366683375,0.0764007568359375,-0.9281005859375,0.1906280517578125,117671.357711375,0.05785770731418947,-0.03149853779291219,-0.2978548605332962,117671.355697375,1.028424463732634,2.924787734677136,1.440621840253286,0.1707008481025696,-0.127239853143692,-0.2778358161449432,-0.02058303356170654,0.03075432777404785,-0.02456331253051758,XArbitraryCorrectedZVertical,-0.3053689301013947,0.685662567615509,0.6109410524368286,-0.2517290115356445,0.02792251110076904,-0.9915392398834229,0.1267666816711426,-12.83053779602051,-62.87306976318359,-7.321624755859375,2
2017-12-04 17:17:04.914 -0800,125,C4D50155-580C-4885-BACB-A13DEF47355A,1512436621.214716,49.27715556849828,-122.907443947797,343.0692,-1,-1,10,65,-9999,117671.396743375,0.0710296630859375,-1.03021240234375,0.061004638671875,117671.387771375,0.01451502688925887,-0.0171206636997924,0.0725461059904125,117671.390731375,1.068155982932751,2.886123287116024,1.439403514093986,0.01240522880107164,0.006278659217059612,0.05563135072588921,0.04442241787910461,-0.04966574907302856,-0.02921366691589355,XArbitraryCorrectedZVertical,-0.3074110746383667,0.684748113155365,0.6115069389343262,-0.2503552138805389,0.03310748934745789,-0.9913803935050964,0.1267630904912949,-12.51798629760742,-62.82717132568359,-7.07177734375,2
2017-12-04 17:17:04.974 -0800,126,C4D50155-580C-4885-BACB-A13DEF47355A,1512436621.214716,49.27715556849828,-122.907443947797,343.0692,-1,-1,10,65,-9999,117671.426803375,0.0252227783203125,-0.940765380859375,0.1331329345703125,117671.417830375,0.08474711220850152,-0.2042079965939679,0.1967607329216703,117671.390731375,1.068155982932751,2.886123287116024,1.439403514093986,0.01240522880107164,0.006278659217059612,0.05563135072588921,0.04442241787910461,-0.04966574907302856,-0.02921366691589355,XArbitraryCorrectedZVertical,-0.3074110746383667,0.684748113155365,0.6115069389343262,-0.2503552138805389,0.03310748934745789,-0.9913803935050964,0.1267630904912949,-12.51798629760742,-62.82717132568359,-7.07177734375,2
2017-12-04 17:17:04.978 -0800,127,C4D50155-580C-4885-BACB-A13DEF47355A,1512436621.214716,49.27715556849828,-122.907443947797,343.0692,-1,-1,10,65,-9999,117671.456862375,0.190673828125,-1.0399169921875,0.1608734130859375,117671.447890375,-0.114172379092787,-0.03580646717222437,-0.009641175778304858,117671.425826375,1.014129622931135,2.933920584316898,1.437112367458409,0.06443478912115097,-0.2009137719869614,0.1773350685834885,-0.03446987271308899,0.03375643491744995,-0.02821922302246094,XArbitraryCorrectedZVertical,-0.3039330840110779,0.6876307129859924,0.6102566123008728,-0.2497510612010956,0.02748134732246399,-0.9910776019096375,0.1304226368665695,-12.84242248535156,-62.93824768066406,-6.67108154296875,2
2017-12-04 17:17:05.004 -0800,128,C4D50155-580C-4885-BACB-A13DEF47355A,1512436621.214716,49.27715556849828,-122.907443947797,343.0692,-1,-1,10,65,-9999,117671.486922375,-0.0367431640625,-0.9613494873046875,0.1598968505859375,117671.477950375,0.2287429007685409,-0.4017112188275523,0.08940338305839605,117671.460891375,1.009930831546233,2.933859105995511,1.438875824864922,0.03715449199080467,-0.1029005497694016,-0.04095345363020897,0.1855181753635406,-0.02306270599365234,-0.02044689655303955,XArbitraryCorrectedZVertical,-0.3021307289600372,0.6878015995025635,0.6113376021385193,-0.2488213330507278,0.02712832950055599,-0.9913110733032227,0.1287080347537994,-12.79595184326172,-62.83325958251953,-6.949310302734375,2
2017-12-04 17:17:05.054 -0800,129,C4D50155-580C-4885-BACB-A13DEF47355A,1512436621.214716,49.27715556849828,-122.907443947797,343.0692,-1,-1,10,65,-9999,117671.516982375,0.022979736328125,-0.9966888427734375,0.216644287109375,117671.508010375,-0.1420815083684904,-0.1984523728460886,0.2308689022667511,117671.495986375,0.9819373948185575,2.949339265478988,1.433029032339097,0.09700885415077209,-0.3061109781265259,0.2297953367233276,-0.07955414056777954,0.04182517528533936,0.06011533737182617,XArbitraryCorrectedZVertical,-0.2983127534389496,0.6916716694831848,0.6106323599815369,-0.2443926334381104,0.02623992040753365,-0.9905250668525696,0.1348003894090652,-13.05682563781738,-62.87995910644531,-6.5574951171875,2
2017-12-04 17:17:05.064 -0800,130,C4D50155-580C-4885-BACB-A13DEF47355A,1512436621.214716,49.27715556849828,-122.907443947797,343.0692,-1,-1,10,65,-9999,117671.547042375,0.0516815185546875,-0.9625396728515625,0.0693206787109375,117671.538070375,-0.060665211735351,0.02869662601003982,0.05531438847316379,117671.531020375,0.9363183170261511,2.989441206220133,1.438230257649061,-0.1666557639837265,0.05540673062205315,0.1141258925199509,0.0822615921497345,-0.0639955997467041,0.04415512084960938,XArbitraryCorrectedZVertical,-0.2938520610332489,0.6920807361602783,0.6119449138641357,-0.2453537434339523,0.02003335021436214,-0.9912259578704834,0.1306495517492294,-13.86960601806641,-63.0445671081543,-6.442718505859375,2
2017-12-04 17:17:05.096 -0800,131,C4D50155-580C-4885-BACB-A13DEF47355A,1512436621.214716,49.27715556849828,-122.907443947797,343.0692,-1,-1,10,65,-9999,117671.577102375,-0.0465545654296875,-0.8744964599609375,0.098358154296875,117671.568129375,0.1039437099780107,-0.1617430940643274,0.1536137948368606,117671.566115375,0.9164097796964693,3.008964280308632,1.438696463313511,0.1223814636468887,-0.08109816163778305,0.1382802873849869,-8.401274681091309e-05,0.0642244815826416,-0.03805971145629883,XArbitraryCorrectedZVertical,-0.292853444814682,0.6924710273742676,0.6116788983345032,-0.2461088746786118,0.01741801388561726,-0.9912874698638916,0.1305585205554962,-14.16436958312988,-63.21315765380859,-6.672576904296875,2
2017-12-04 17:17:05.144 -0800,132,C4D50155-580C-4885-BACB-A13DEF47355A,1512436621.214716,49.27715556849828,-122.907443947797,343.0692,-1,-1,10,65,-9999,117671.607161375,0.0542449951171875,-0.991363525390625,0.16436767578125,117671.598189375,-0.09164549838013376,-0.2728664200250827,0.2507648461385151,117671.601149375,0.8581180054341785,3.059209166383737,1.437870320533891,-0.06984804570674896,-0.2739564776420593,0.2597580254077911,-0.01629257202148438,0.02982884645462036,0.02936923503875732,XArbitraryCorrectedZVertical,-0.2881269156932831,0.6949999332427979,0.6112719774246216,-0.2455695122480392,0.0109062297269702,-0.9911783337593079,0.1320840567350388,-14.2975902557373,-63.24296569824219,-6.458282470703125,2
2017-12-04 17:17:05.154 -0800,133,C4D50155-580C-4885-BACB-A13DEF47355A,1512436621.214716,49.27715556849828,-122.907443947797,343.0692,-1,-1,10,65,-9999,117671.637221375,-0.0906829833984375,-1.089645385742188,0.1044158935546875,117671.628249375,0.02118571278768935,-0.2305445292459795,0.1657439609699534,117671.601149375,0.8581180054341785,3.059209166383737,1.437870320533891,-0.06984804570674896,-0.2739564776420593,0.2597580254077911,-0.01629257202148438,0.02982884645462036,0.02936923503875732,XArbitraryCorrectedZVertical,-0.2881269156932831,0.6949999332427979,0.6112719774246216,-0.2455695122480392,0.0109062297269702,-0.9911783337593079,0.1320840567350388,-14.2975902557373,-63.24296569824219,-6.458282470703125,2
2017-12-04 17:17:05.215 -0800,134,C4D50155-580C-4885-BACB-A13DEF47355A,1512436621.214716,49.27715556849828,-122.907443947797,343.0692,-1,-1,10,65,-9999,117671.667281375,-0.0496673583984375,-0.9744110107421875,0.1359100341796875,117671.658309375,0.01248170339698337,-0.2475932875963398,0.2250988974489855,117671.636245375,0.8127808881534664,3.094986206303556,1.438966882868604,0.04810690134763718,-0.2528846561908722,0.1800971031188965,-0.05165627598762512,-0.07976758480072021,-0.02182209491729736,XArbitraryCorrectedZVertical,-0.2831353545188904,0.6967684626579285,0.6120871901512146,-0.2443300932645798,0.006124040111899376,-0.9913230538368225,0.1313038319349289,-14.93327331542969,-63.21653747558594,-6.393585205078125,2
2017-12-04 17:17:05.218 -0800,135,C4D50155-580C-4885-BACB-A13DEF47355A,1512436621.214716,49.27715556849828,-122.907443947797,343.0692,-1,-1,10,65,-9999,117671.697341375,0.065765380859375,-0.980682373046875,0.1136016845703125,117671.688369375,-0.06346472667324229,-0.3937984345967089,0.1946275408885168,117671.671309375,0.7569010006473933,3.141253403424128,1.43841206360472,-0.01968852430582047,-0.2495957165956497,0.2107578217983246,-0.02664086222648621,0.02805423736572266,0.01236927509307861,XArbitraryCorrectedZVertical,-0.2778678238391876,0.6991326808929443,0.6122184991836548,-0.2432920634746552,4.4779011659557e-05,-0.9912499785423279,0.1319940686225891,-15.90374374389648,-63.13914489746094,-6.098236083984375,2
2017-12-04 17:17:05.244 -0800,136,C4D50155-580C-4885-BACB-A13DEF47355A,1512436621.214716,49.27715556849828,-122.907443947797,343.0692,-1,-1,10,65,-9999,117671.727401375,0.0043792724609375,-1.077850341796875,0.137054443359375,117671.718429375,0.06105323430617554,-0.3061585968121633,0.2907298393528982,117671.706405375,0.7011363886936738,-3.099091570248366,1.439586933530062,-0.001703742891550064,-0.4056324064731598,0.2309210300445557,0.07417747378349304,-0.01215094327926636,-0.009449005126953125,XArbitraryCorrectedZVertical,-0.2713385224342346,0.7012351155281067,0.6135073900222778,-0.2413563281297684,-0.005558687727898359,-0.9914044141769409,0.130710557103157,-16.41868782043457,-63.24345397949219,-6.271148681640625,2
2017-12-04 17:17:05.295 -0800,137,C4D50155-580C-4885-BACB-A13DEF47355A,1512436621.214716,49.27715556849828,-122.907443947797,343.0692,-1,-1,10,65,-9999,117671.757491375,0.0010528564453125,-0.9131317138671875,0.12835693359375,117671.748488375,0.1260743123204602,-0.4043932883613711,0.5990509229702058,117671.741439375,0.6091808176158661,-3.018675993293699,1.435570146122221,0.1323110610246658,-0.2684379518032074,0.5123697519302368,-0.04705440998077393,-0.0216870903968811,-0.002493143081665039,XArbitraryCorrectedZVertical,-0.2640168070793152,0.7051188945770264,0.6123839020729065,-0.2410148531198502,-0.01652896776795387,-0.9908708930015564,0.1337950527667999,-16.8629322052002,-63.33700561523438,-5.943450927734375,2
2017-12-04 17:17:05.304 -0800,138,C4D50155-580C-4885-BACB-A13DEF47355A,1512436621.214716,49.27715556849828,-122.907443947797,343.0692,-1,-1,10,65,-9999,117671.787551375,-0.0363311767578125,-1.106109619140625,0.1427764892578125,117671.778548375,0.09192406503015606,-0.4699022574873582,0.4706396867932012,117671.776534375,0.4690647385613381,-2.896522365376542,1.428010757582212,0.08338996767997742,-0.5240694880485535,0.5438193082809448,0.08373448252677917,-0.002394616603851318,0.001846671104431152,XArbitraryCorrectedZVertical,-0.2521615624427795,0.7109412550926208,0.6106963753700256,-0.2408871352672577,-0.03452489897608757,-0.9898234605789185,0.1380458474159241,-18.55640411376953,-63.15264129638672,-5.2183837890625,2
2017-12-04 17:17:05.377 -0800,139,C4D50155-580C-4885-BACB-A13DEF47355A,1512436621.214716,49.27715556849828,-122.907443947797,343.0692,-1,-1,10,65,-9999,117671.817611375,-0.2168121337890625,-1.058578491210938,0.2135162353515625,117671.808608375,0.006247509601216884,0.09516832787009058,0.2002862255727172,117671.811599375,0.39592169176407,-2.833357682661974,1.421884956376168,0.03089030086994171,0.05588236823678017,0.21668641269207,-0.1527763307094574,-0.1210979223251343,0.07370781898498535,XArbitraryCorrectedZVertical,-0.245475247502327,0.714439868927002,0.6093449592590332,-0.2408644258975983,-0.0450080893933773,-0.9889331459999084,0.1413648426532745,-19.81000518798828,-63.25623321533203,-4.817626953125,2
2017-12-04 17:17:05.380 -0800,140,C4D50155-580C-4885-BACB-A13DEF47355A,1512436621.214716,49.27715556849828,-122.907443947797,343.0692,-1,-1,10,65,-9999,117671.847670375,0.006927490234375,-0.9622039794921875,0.1225128173828125,117671.838668375,-0.1505279900817857,-0.09194217452556859,-0.02108371371793931,117671.811599375,0.39592169176407,-2.833357682661974,1.421884956376168,0.03089030086994171,0.05588236823678017,0.21668641269207,-0.1527763307094574,-0.1210979223251343,0.07370781898498535,XArbitraryCorrectedZVertical,-0.245475247502327,0.714439868927002,0.6093449592590332,-0.2408644258975983,-0.0450080893933773,-0.9889331459999084,0.1413648426532745,-19.81000518798828,-63.25623321533203,-4.817626953125,2
2017-12-04 17:17:05.395 -0800,141,C4D50155-580C-4885-BACB-A13DEF47355A,1512436621.214716,49.27715556849828,-122.907443947797,343.0692,-1,-1,10,65,-9999,117671.877730375,0.003448486328125,-1.209442138671875,0.0924530029296875,117671.868728375,0.03065325046292104,0.04453817343826717,-0.02804095574966231,117671.846694375,0.3701258926463686,-2.805797116751529,1.423977964949562,-0.1283248215913773,-0.139656662940979,-0.04622715711593628,-0.007581919431686401,0.06284987926483154,-0.002861738204956055,XArbitraryCorrectedZVertical,-0.2446628361940384,0.7135810852050781,0.6098766922950745,-0.2428823858499527,-0.04820423200726509,-0.9892415404319763,0.1381157338619232,-20.15638542175293,-63.32944488525391,-4.88037109375,2
2017-12-04 17:17:05.457 -0800,142,C4D50155-580C-4885-BACB-A13DEF47355A,1512436621.214716,49.27715556849828,-122.907443947797,343.0692,-1,-1,10,65,-9999,117671.907790375,-0.1072845458984375,-1.037109375,0.1743011474609375,117671.898787375,0.05149275230890009,0.07953610490354347,-0.04777817522045757,117671.881728375,0.3846550985349813,-2.822214481666927,1.424991606725205,0.095638707280159,-0.004410529043525457,-0.003475038800388575,0.04654666781425476,-0.194128155708313,-0.07296574115753174,XArbitraryCorrectedZVertical,-0.2448375821113586,0.7134587168693542,0.6105079650878906,-0.2414761036634445,-0.04561587423086166,-0.9893893003463745,0.1379375606775284,-20.02400588989258,-63.31461334228516,-4.916168212890625,2
2017-12-04 17:17:05.460 -0800,143,C4D50155-580C-4885-BACB-A13DEF47355A,1512436621.214716,49.27715556849828,-122.907443947797,343.0692,-1,-1,10,65,-9999,117671.937850375,-0.0569305419921875,-1.088836669921875,0.11053466796875,117671.928847375,0.009847570762785999,0.1023253069835695,-0.316499118692723,117671.916823375,0.4027195971972103,-2.837892595635767,1.423194546624028,0.01311973016709089,0.1551677584648132,-0.1620159596204758,-0.07191237807273865,-0.05169063806533813,0.0444711446762085,XArbitraryCorrectedZVertical,-0.2465108335018158,0.7137201428413391,0.6095776557922363,-0.2413502782583237,-0.04397811740636826,-0.9891266226768494,0.1403280645608902,-19.68837547302246,-63.41082000732422,-4.907501220703125,2
2017-12-04 17:17:05.485 -0800,144,C4D50155-580C-4885-BACB-A13DEF47355A,1512436621.214716,49.27715556849828,-122.907443947797,343.0692,-1,-1,10,65,-9999,117671.967910375,-0.08599853515625,-0.94317626953125,0.146514892578125,117671.958907375,0.09703120905260101,-0.01684742337195027,-0.2226493218783306,117671.951857375,0.4775061328423997,-2.910097954205518,1.424379551277428,0.1190575212240219,-0.08561007678508759,-0.3552614152431488,-0.03749758005142212,-0.0406222939491272,-0.04696285724639893,XArbitraryCorrectedZVertical,-0.2511408925056458,0.7126889824867249,0.6100355982780457,-0.2384496182203293,-0.03347106277942657,-0.9893001914024353,0.1419946700334549,-18.88811111450195,-63.50003051757812,-5.28564453125,2
2017-12-04 17:17:05.535 -0800,145,C4D50155-580C-4885-BACB-A13DEF47355A,1512436621.214716,49.27715556849828,-122.907443947797,343.0692,-1,-1,10,65,-9999,117671.997970375,0.0363311767578125,-0.8841400146484375,0.1531219482421875,117671.988967375,0.01344789824046412,-0.2551129892502875,0.2835920349992678,117671.986953375,0.5040798273884344,-2.940824423402381,1.422382690407791,0.02589751407504082,-0.2973500192165375,0.1572468429803848,0.005697876214981079,0.1193321943283081,-0.02007198333740234,XArbitraryCorrectedZVertical,-0.2513234913349152,0.7136391997337341,0.6100011467933655,-0.2354842275381088,-0.02948631532490253,-0.9890068769454956,0.1448888033628464,-18.66139221191406,-63.44852828979492,-5.05755615234375,2
2017-12-04 17:17:05.545 -0800,146,C4D50155-580C-4885-BACB-A13DEF47355A,1512436621.214716,49.27715556849828,-122.907443947797,343.0692,-1,-1,10,65,-9999,117672.028029375,0.032623291015625,-0.953582763671875,0.0812530517578125,117672.019027375,0.07425425751358931,-0.4745297661974799,0.05765743760021551,117672.022017375,0.4611010706053456,-2.90814609029014,1.419004022265007,0.0594334676861763,-0.3853143155574799,0.05343130603432655,0.009632408618927002,0.003623127937316895,-0.02045011520385742,XArbitraryCorrectedZVertical,-0.2460509240627289,0.7162457704544067,0.6097158789634705,-0.2338719367980957,-0.0349772609770298,-0.9885016679763794,0.1470981240272522,-18.89201736450195,-63.29065322875977,-5.0037841796875,2
2017-12-04 17:17:05.617 -0800,147,C4D50155-580C-4885-BACB-A13DEF47355A,1512436621.214716,49.27715556849828,-122.907443947797,343.0692,-1,-1,10,65,-9999,117672.058089375,-0.0799407958984375,-0.996795654296875,0.20135498046875,117672.049086375,-0.06755640737204004,-0.1464919694497706,0.1430362516192838,117672.022017375,0.4611010706053456,-2.90814609029014,1.419004022265007,0.0594334676861763,-0.3853143155574799,0.05343130603432655,0.009632408618927002,0.003623127937316895,-0.02045011520385742,XArbitraryCorrectedZVertical,-0.2460509240627289,0.7162457704544067,0.6097158789634705,-0.2338719367980957,-0.0349772609770298,-0.9885016679763794,0.1470981240272522,-18.89201736450195,-63.29065322875977,-5.0037841796875,2
2017-12-04 17:17:05.620 -0800,148,C4D50155-580C-4885-BACB-A13DEF47355A,1512436621.214716,49.27715556849828,-122.907443947797,343.0692,-1,-1,10,65,-9999,117672.088149375,-0.0367279052734375,-0.959869384765625,0.1700286865234375,117672.079146375,0.01732839026481858,-0.04350113850979031,-0.02530908510345903,117672.057113375,0.4311137690678999,-2.887983052500708,1.415504265892035,-0.06566755473613739,-0.1548188924789429,0.07507366687059402,-0.03279075026512146,-0.03515064716339111,0.08002603054046631,XArbitraryCorrectedZVertical,-0.2415313571691513,0.7186917066574097,0.6094326376914978,-0.2318084836006165,-0.03880348429083824,-0.9879664182662964,0.1497103273868561,-19.42721366882324,-63.18955993652344,-4.765045166015625,2
2017-12-04 17:17:05.635 -0800,149,C4D50155-580C-4885-BACB-A13DEF47355A,1512436621.214716,49.27715556849828,-122.907443947797,343.0692,-1,-1,10,65,-9999,117672.118209375,-0.0812835693359375,-0.9678955078125,0.14801025390625,117672.109206375,-0.007283745581366716,0.0542054481952548,-0.04998913155744135,117672.092147375,0.4447345983751306,-2.905199656681093,1.415590209053705,-0.004249265417456627,-0.03916092216968536,-0.0341205932199955,-0.009834647178649902,-0.002636134624481201,0.02289557456970215,XArbitraryCorrectedZVertical,-0.2411764115095139,0.7190077304840088,0.6099700927734375,-0.2297763377428055,-0.03620113059878349,-0.9879797101020813,0.1502763628959656,-19.4773120880127,-63.36331176757812,-4.951019287109375,2
2017-12-04 17:17:05.696 -0800,150,C4D50155-580C-4885-BACB-A13DEF47355A,1512436621.214716,49.27715556849828,-122.907443947797,343.0692,-1,-1,10,65,-9999,117672.148269375,-0.03509521484375,-0.9981842041015625,0.1535797119140625,117672.139266375,-0.009830792847918501,0.09235842660394798,-0.01803865532754271,117672.127242375,0.4539659018136583,-2.913107999062525,1.415877449449084,0.01931092143058777,0.08381959795951843,-0.004673489835113287,-0.04210940003395081,0.02273780107498169,-0.00144803524017334,XArbitraryCorrectedZVertical,-0.2420741617679596,0.7187080383300781,0.6099728345870972,-0.2297628372907639,-0.034947469830513,-0.9880240559577942,0.1502822935581207,-19.17541694641113,-63.28804016113281,-4.93768310546875,2
2017-12-04 17:17:05.698 -0800,151,C4D50155-580C-4885-BACB-A13DEF47355A,1512436621.214716,49.27715556849828,-122.907443947797,343.0692,-1,-1,10,65,-9999,117672.178328375,0.0155029296875,-1.053665161132812,0.142974853515625,117672.169326375,-0.02284459583069971,-0.010419085132717,-0.09084628373700099,117672.162307375,0.4641482335735392,-2.921280522540668,1.416019041161804,0.002157234586775303,0.001297821290791035,-0.1338751614093781,-0.05331844091415405,-0.02364230155944824,-0.01301920413970947,XArbitraryCorrectedZVertical,-0.2432356625795364,0.7183653116226196,0.6098478436470032,-0.2299391776323318,-0.03368717059493065,-0.988045871257782,0.1504246145486832,-19.30884170532227,-63.41664886474609,-4.947479248046875,2
2017-12-04 17:17:05.725 -0800,152,C4D50155-580C-4885-BACB-A13DEF47355A,1512436621.214716,49.27715556849828,-122.907443947797,343.0692,-1,-1,10,65,-9999,117672.208358875,-0.0483245849609375,-1.014236450195312,0.16766357421875,117672.199386375,-0.001940112854122725,-0.1000155473701438,0.183711243580282,117672.197402375,0.4601289873438964,-2.920143234614405,1.416074680092072,0.002902133390307426,-0.1583337932825089,0.1709821969270706,0.09189110994338989,-0.08460789918899536,-0.02609777450561523,XArbitraryCorrectedZVertical,-0.242136612534523,0.7187052965164185,0.6101914048194885,-0.2291245311498642,-0.0338466688990593,-0.9880544543266296,0.1503348797559738,-19.20284652709961,-63.10732269287109,-4.823760986328125,2
2017-12-04 17:17:05.779 -0800,153,C4D50155-580C-4885-BACB-A13DEF47355A,1512436621.214716,49.27715556849828,-122.907443947797,343.0692,-1,-1,10,65,-9999,117672.238418875,-0.05718994140625,-0.8607177734375,0.1458892822265625,117672.229415875,-0.009173258374777936,0.2018191410961668,-0.132622226492638,117672.232406875,0.4438768430872706,-2.902641976563826,1.415565270843587,-0.00585129763931036,0.1943841278553009,-0.1080326214432716,-0.07620105147361755,0.1341702938079834,0.02062726020812988,XArbitraryCorrectedZVertical,-0.2416485697031021,0.7188261747360229,0.6097498536109924,-0.2304328233003616,-0.03659192845225334,-0.9879758358001709,0.1502102017402649,-19.34821701049805,-63.03384780883789,-4.5821533203125,2
2017-12-04 17:17:05.785 -0800,154,C4D50155-580C-4885-BACB-A13DEF47355A,1512436621.214716,49.27715556849828,-122.907443947797,343.0692,-1,-1,10,65,-9999,117672.268478875,-0.009490966796875,-0.9880523681640625,0.09124755859375,117672.259475875,-0.006660832202397183,-0.01052614420853819,-0.04481620745607143,117672.232406875,0.4438768430872706,-2.902641976563826,1.415565270843587,-0.00585129763931036,0.1943841278553009,-0.1080326214432716,-0.07620105147361755,0.1341702938079834,0.02062726020812988,XArbitraryCorrectedZVertical,-0.2416485697031021,0.7188261747360229,0.6097498536109924,-0.2304328233003616,-0.03659192845225334,-0.9879758358001709,0.1502102017402649,-19.34821701049805,-63.03384780883789,-4.5821533203125,2
2017-12-04 17:17:05.856 -0800,155,C4D50155-580C-4885-BACB-A13DEF47355A,1512436621.214716,49.27715556849828,-122.907443947797,343.0692,-1,-1,10,65,-9999,117672.298538875,-0.0217742919921875,-0.9959564208984375,0.126983642578125,117672.289535875,0.06374435858770061,-0.1763031283760086,0.02095961041114162,117672.267501875,0.4526830672066913,-2.907319091416065,1.416057774582656,0.01829804480075836,-0.05722484365105629,-0.04650919884443283,0.05870959162712097,-0.01226860284805298,-0.03738653659820557,XArbitraryCorrectedZVertical,-0.243372768163681,0.7181379199028015,0.6094858646392822,-0.2314598262310028,-0.03577563166618347,-0.9880518317222595,0.1499047577381134,-19.22921752929688,-63.26446151733398,-4.64630126953125,2
2017-12-04 17:17:05.859 -0800,156,C4D50155-580C-4885-BACB-A13DEF47355A,1512436621.214716,49.27715556849828,-122.907443947797,343.0692,-1,-1,10,65,-9999,117672.328597875,-0.1277008056640625,-0.90240478515625,0.18011474609375,117672.319595875,0.01659575464893778,0.05567311627199747,-0.3473289367359162,117672.302535875,0.4557529580831139,-2.915024786126615,1.414058399422777,0.09133881330490112,-0.1306036412715912,-0.03682723268866539,-0.004975229501724243,-0.009328603744506836,-0.009632468223571777,XArbitraryCorrectedZVertical,-0.2421881854534149,0.7193029522895813,0.609314501285553,-0.2295287400484085,-0.03506385535001755,-0.9877417087554932,0.1521037071943283,-19.16068840026855,-63.14613342285156,-4.689971923828125,2
2017-12-04 17:17:05.875 -0800,157,C4D50155-580C-4885-BACB-A13DEF47355A,1512436621.214716,49.27715556849828,-122.907443947797,343.0692,-1,-1,10,65,-9999,117672.358657875,0.0918731689453125,-1.05828857421875,0.1232452392578125,117672.349655875,-0.1237056968469437,0.01911324082738968,0.1679224267416383,117672.337631875,0.5109492737229662,-2.969864344145679,1.4149672207916,-0.07191352546215057,0.02802583761513233,-0.1585770398378372,-0.0369410514831543,0.06364309787750244,0.01839995384216309,XArbitraryCorrectedZVertical,-0.2452757805585861,0.7185367345809937,0.6100435256958008,-0.2266954928636551,-0.02652027457952499,-0.9878832101821899,0.1529105007648468,-18.60614395141602,-63.02569580078125,-4.514495849609375,2
2017-12-04 17:17:05.934 -0800,158,C4D50155-580C-4885-BACB-A13DEF47355A,1512436621.214716,49.27715556849828,-122.907443947797,343.0692,-1,-1,10,65,-9999,117672.388717875,-0.040771484375,-1.037429809570312,0.178863525390625,117672.379714875,0.01875025197081188,-0.1477535088581412,0.1488824228442258,117672.372695875,0.4829000323489747,-2.944132164263548,1.416477744933847,0.04525545239448547,-0.2294323295354843,0.1130994260311127,-0.02412205934524536,0.01405644416809082,-0.05321264266967773,XArbitraryCorrectedZVertical,-0.2429820001125336,0.7185526490211487,0.6106517910957336,-0.2274768799543381,-0.03015344217419624,-0.9881165027618408,0.1507163196802139,-18.69932174682617,-63.25042343139648,-4.649078369140625,2
2017-12-04 17:17:05.936 -0800,159,C4D50155-580C-4885-BACB-A13DEF47355A,1512436621.214716,49.27715556849828,-122.907443947797,343.0692,-1,-1,10,65,-9999,117672.418777875,-0.113800048828125,-0.89501953125,0.2043304443359375,117672.409774875,-0.1903374546885082,0.1267675331522078,-0.05426084194592844,117672.407791875,0.4608300361870841,-2.925445226174566,1.416960804087936,-0.140640065073967,0.02161011472344398,-0.02692299522459507,-0.08675196766853333,0.03971958160400391,0.04183924198150635,XArbitraryCorrectedZVertical,-0.2407401204109192,0.7189391255378723,0.6110838651657104,-0.227478563785553,-0.03286167234182358,-0.9881906509399414,0.1496585458517075,-19.2014045715332,-63.32005310058594,-4.74603271484375,2
2017-12-04 17:17:05.966 -0800,160,C4D50155-580C-4885-BACB-A13DEF47355A,1512436621.214716,49.27715556849828,-122.907443947797,343.0692,-1,-1,10,65,-9999,117672.448837875,-0.0203857421875,-1.022735595703125,0.103057861328125,117672.439834875,-0.2147101723526954,0.3472620913925553,0.1085387281228334,117672.442825875,0.4433162328311398,-2.898549790151794,1.424608585602876,-0.2130460292100906,0.3483534455299377,0.1107844114303589,0.04981029033660889,-0.007721483707427979,-0.003855228424072266,XArbitraryCorrectedZVertical,-0.2424565106630325,0.7154762148857117,0.6127176284790039,-0.2321319580078125,-0.03505503386259079,-0.9893335700035095,0.1413827538490295,-19.1578197479248,-63.29618835449219,-4.963897705078125,2
2017-12-04 17:17:06.014 -0800,161,C4D50155-580C-4885-BACB-A13DEF47355A,1512436621.214716,49.27715556849828,-122.907443947797,343.0692,-1,-1,10,65,-9999,117672.478897875,0.033203125,-0.987823486328125,0.1735076904296875,117672.469894875,-0.2010249864591052,0.3089509212151114,0.162938587077664,117672.442825875,0.4433162328311398,-2.898549790151794,1.424608585602876,-0.2130460292100906,0.3483534455299377,0.1107844114303589,0.04981029033660889,-0.007721483707427979,-0.003855228424072266,XArbitraryCorrectedZVertical,-0.2424565106630325,0.7154762148857117,0.6127176284790039,-0.2321319580078125,-0.03505503386259079,-0.9893335700035095,0.1413827538490295,-19.1578197479248,-63.29618835449219,-4.963897705078125,2
2017-12-04 17:17:06.026 -0800,162,C4D50155-580C-4885-BACB-A13DEF47355A,1512436621.214716,49.27715556849828,-122.907443947797,343.0692,-1,-1,10,65,-9999,117672.508956875,-0.098480224609375,-1.011489868164062,0.125335693359375,117672.499954875,-0.2798739958014082,0.5152265960794168,-0.007120227490435851,117672.477920875,0.3983204972669825,-2.845216932385683,1.428711862671052,-0.1992175877094269,0.3344584107398987,0.164183497428894,0.05835503339767456,-0.03420114517211914,0.01578283309936523,XArbitraryCorrectedZVertical,-0.2426532059907913,0.7133269309997559,0.6130737066268921,-0.2375385910272598,-0.04135674610733986,-0.9899230003356934,0.135431781411171,-19.56658554077148,-63.16142272949219,-5.817108154296875,2
2017-12-04 17:17:06.103 -0800,163,C4D50155-580C-4885-BACB-A13DEF47355A,1512436621.214716,49.27715556849828,-122.907443947797,343.0692,-1,-1,10,65,-9999,117672.539016875,-0.009979248046875,-0.9862213134765625,0.1327056884765625,117672.530013875,-0.1486286235923412,0.3813044806587111,-0.04436773112850209,117672.512954875,0.3684677951497589,-2.799660402157561,1.435935022335186,-0.1825278699398041,0.4185101985931396,-0.01397680677473545,-0.03539255261421204,-0.02340805530548096,-0.02582144737243652,XArbitraryCorrectedZVertical,-0.2459893971681595,0.7090998888015747,0.6138207316398621,-0.2447251081466675,-0.04508231207728386,-0.9909200072288513,0.1266668736934662,-19.64850234985352,-63.12385177612305,-6.93109130859375,2
2017-12-04 17:17:06.106 -0800,164,C4D50155-580C-4885-BACB-A13DEF47355A,1512436621.214716,49.27715556849828,-122.907443947797,343.0692,-1,-1,10,65,-9999,117672.569076875,-0.0683441162109375,-0.9504547119140625,0.0977325439453125,117672.560104875,-0.1285158984078448,0.173290294234802,-0.0381167594178681,117672.548049875,0.3647459980580593,-2.783324740988774,1.440690702156941,-0.09666819125413895,0.3567718863487244,-0.001902649644762278,0.01267054677009583,0.00230562686920166,0.001975774765014648,XArbitraryCorrectedZVertical,-0.2497124075889587,0.7059694528579712,0.6140381693840027,-0.2494145482778549,-0.04549220576882362,-0.9915481805801392,0.1214983090758324,-19.53145408630371,-63.07297897338867,-7.616119384765625,2
2017-12-04 17:17:06.116 -0800,165,C4D50155-580C-4885-BACB-A13DEF47355A,1512436621.214716,49.27715556849828,-122.907443947797,343.0692,-1,-1,10,65,-9999,117672.599136875,-0.0262298583984375,-0.99273681640625,0.09552001953125,117672.590164875,0.01618829100215566,-0.4303551142480085,-0.2942697130738315,117672.583114875,0.3722616139104094,-2.78816830750188,1.443456981037686,0.01192170009016991,-0.2469632476568222,-0.1555633693933487,0.02594849467277527,0.08759117126464844,-0.08760404586791992,XArbitraryCorrectedZVertical,-0.2508911490440369,0.704716682434082,0.6147405505180359,-0.2500436007976532,-0.04395386576652527,-0.9919033050537109,0.1191439405083656,-19.45522117614746,-62.94633483886719,-7.798980712890625,2
