loggingTime(txt),loggingSample(N),identifierForVendor(txt),locationTimestamp_since1970(s),locationLatitude(WGS84),locationLongitude(WGS84),locationAltitude(m),locationSpeed(m/s),locationCourse(°),locationVerticalAccuracy(m),locationHorizontalAccuracy(m),locationFloor(Z),accelerometerTimestamp_sinceReboot(s),accelerometerAccelerationX(G),accelerometerAccelerationY(G),accelerometerAccelerationZ(G),gyroTimestamp_sinceReboot(s),gyroRotationX(rad/s),gyroRotationY(rad/s),gyroRotationZ(rad/s),motionTimestamp_sinceReboot(s),motionYaw(rad),motionRoll(rad),motionPitch(rad),motionRotationRateX(rad/s),motionRotationRateY(rad/s),motionRotationRateZ(rad/s),motionUserAccelerationX(G),motionUserAccelerationY(G),motionUserAccelerationZ(G),motionAttitudeReferenceFrame(txt),motionQuaternionX(R),motionQuaternionY(R),motionQuaternionZ(R),motionQuaternionW(R),motionGravityX(G),motionGravityY(G),motionGravityZ(G),motionMagneticFieldX(µT),motionMagneticFieldY(µT),motionMagneticFieldZ(µT),motionMagneticFieldCalibrationAccuracy(Z)
2017-12-04 17:02:37.696 -0800,1,BF2B89E4-20AD-4334-A98B-17808832B17C,1512435753.438332,49.277192956445,-122.9073890059268,343.3391,-1,-1,10,65,-9999,57761.89207316667,0.129974365234375,-0.989044189453125,-0.138641357421875,57761.86564716667,0.05172311574319194,0.05285256236149455,-0.009027849779259609,57761.87445616667,-0.7684550749551251,0.8147986601628232,1.392965745424248,0.04849586263298988,0.06014733761548996,0.005131978541612625,-0.002332195639610291,-0.001640617847442627,0.01171720027923584,XArbitraryCorrectedZVertical,0.6600030660629272,0.06099320948123932,-0.02835568785667419,0.7482455968856812,0.1287054866552353,-0.9842297434806824,-0.1213515624403954,14.84472274780273,-63.17073059082031,-15.43548583984375,2
2017-12-04 17:02:37.711 -0800,2,BF2B89E4-20AD-4334-A98B-17808832B17C,1512435753.438332,49.277192956445,-122.9073890059268,343.3391,-1,-1,10,65,-9999,57761.92599916667,0.13671875,-0.9830169677734375,-0.1278228759765625,57761.89838216667,-0.0447107462769043,0.01086836040861337,0.005529521371331522,57761.90969116667,-0.7652129793136749,0.8129089776648037,1.392971373794002,-0.04465613886713982,0.002796292537823319,0.01759022101759911,0.0112212598323822,-0.006552934646606445,-0.01296025514602661,XArbitraryCorrectedZVertical,0.6598785519599915,0.06135492026805878,-0.02776516601443291,0.7483481764793396,0.1284729540348053,-0.9842307567596436,-0.1215917393565178,14.68962860107422,-63.38824462890625,-15.75086212158203,2
2017-12-04 17:02:37.738 -0800,3,BF2B89E4-20AD-4334-A98B-17808832B17C,1512435753.438332,49.277192956445,-122.9073890059268,343.3391,-1,-1,10,65,-9999,57761.95873416667,0.1173095703125,-0.9818267822265625,-0.10821533203125,57761.93230816667,-0.009230250022105632,-0.05274124222792923,-0.0008218515123984529,57761.94486716667,-0.760067200527743,0.8067015558109549,1.392831877296177,0.01414924301207066,-0.05087126791477203,0.01108701061457396,0.005471169948577881,0.002623438835144043,0.003767967224121094,XArbitraryCorrectedZVertical,0.6595961451530457,0.06076373904943466,-0.02792169339954853,0.7486394047737122,0.1278143376111984,-0.9842060804367065,-0.1224813833832741,14.93141555786133,-63.35494232177734,-15.40793991088867,2
2017-12-04 17:02:37.768 -0800,4,BF2B89E4-20AD-4334-A98B-17808832B17C,1512435753.438332,49.277192956445,-122.9073890059268,343.3391,-1,-1,10,65,-9999,57761.99266016667,0.1233978271484375,-0.9864349365234375,-0.1257476806640625,57761.96623416667,0.00623659064074756,0.02417670900795734,0.003091663709472987,57761.98010116667,-0.7605618269375197,0.807341790523889,1.393439102140272,0.0008801012299954891,0.03146404772996902,0.01833052560687065,-0.01344744861125946,-0.001968979835510254,-0.003105103969573975,XArbitraryCorrectedZVertical,0.6597905158996582,0.0606897696852684,-0.02774431370198727,0.7484807372093201,0.1274611204862595,-0.9843133687973022,-0.1219864562153816,14.67641830444336,-63.11624145507812,-15.54150009155273,2
2017-12-04 17:02:37.799 -0800,5,BF2B89E4-20AD-4334-A98B-17808832B17C,1512435753.438332,49.277192956445,-122.9073890059268,343.3391,-1,-1,10,65,-9999,57762.02658616667,0.140655517578125,-0.9837188720703125,-0.12896728515625,57761.99896916667,-0.009786318057714176,0.03731461529753624,0.006332198123881405,57762.01527716667,-0.7577028668613022,0.8058072795331671,1.393675332093671,0.002930157352238894,0.04026095569133759,0.01185875758528709,0.007934689521789551,-0.001606881618499756,-0.004368126392364502,XArbitraryCorrectedZVertical,0.6597490310668945,0.06099996343255043,-0.02712155133485794,0.7485148310661316,0.1271055936813354,-0.9843550324440002,-0.1220204383134842,14.78572082519531,-63.37279510498047,-15.49228668212891,2
2017-12-04 17:02:37.845 -0800,6,BF2B89E4-20AD-4334-A98B-17808832B17C,1512435753.438332,49.277192956445,-122.9073890059268,343.3391,-1,-1,10,65,-9999,57762.05932116667,0.1268157958984375,-0.981842041015625,-0.12451171875,57762.03289516667,-0.005444033900339979,0.01207317448576522,-0.01074079499239858,57762.05051216667,-0.7579609844918727,0.8066453096584181,1.393708307856333,-0.009610628709197044,-0.006988413631916046,-0.007193104363977909,0.002271071076393127,0.002793490886688232,-0.007716655731201172,XArbitraryCorrectedZVertical,0.6597774624824524,0.06122032925486565,-0.02693353779613972,0.7484785914421082,0.1271844953298569,-0.9843608736991882,-0.1218915432691574,14.69054794311523,-63.06922912597656,-15.66939163208008,2
2017-12-04 17:02:37.869 -0800,7,BF2B89E4-20AD-4334-A98B-17808832B17C,1512435753.438332,49.277192956445,-122.9073890059268,343.3391,-1,-1,10,65,-9999,57762.09324616667,0.1244964599609375,-0.9876861572265625,-0.121551513671875,57762.06682116667,-0.01286626385839082,0.00875966945748863,-0.01069259177666814,57762.08568816667,-0.7573021771225453,0.8062506420561214,1.393531534219327,0.009386968798935413,0.02270852960646152,0.003321075811982155,-8.094310760498047e-05,-0.003066539764404297,0.008263111114501953,XArbitraryCorrectedZVertical,0.6597018837928772,0.06133400276303291,-0.0268615297973156,0.7485386729240417,0.1272629499435425,-0.9843297004699707,-0.1220631301403046,14.65836334228516,-63.16893005371094,-15.28768920898438,2
2017-12-04 17:02:37.899 -0800,8,BF2B89E4-20AD-4334-A98B-17808832B17C,1512435753.438332,49.277192956445,-122.9073890059268,343.3391,-1,-1,10,65,-9999,57762.12717216667,0.1277618408203125,-0.9835205078125,-0.1290130615234375,57762.09955516667,0.00416252078379385,0.01538561424960577,0.002063949844811409,57762.08568816667,-0.7573021771225453,0.8062506420561214,1.393531534219327,0.009386968798935413,0.02270852960646152,0.003321075811982155,-8.094310760498047e-05,-0.003066539764404297,0.008263111114501953,XArbitraryCorrectedZVertical,0.6597018837928772,0.06133400276303291,-0.0268615297973156,0.7485386729240417,0.1272629499435425,-0.9843297004699707,-0.1220631301403046,14.65836334228516,-63.16893005371094,-15.28768920898438,2
2017-12-04 17:02:37.940 -0800,9,BF2B89E4-20AD-4334-A98B-17808832B17C,1512435753.438332,49.277192956445,-122.9073890059268,343.3391,-1,-1,10,65,-9999,57762.15990716667,0.12567138671875,-0.9825439453125,-0.11956787109375,57762.13348116667,-0.02866866281859399,-0.008856608521167514,-0.003045058390396601,57762.15609816667,-0.753234714320144,0.8026535601743798,1.393499282220504,0.0009641146752983332,0.008409071713685989,0.002343218773603439,0.002335891127586365,0.002527773380279541,0.004133164882659912,XArbitraryCorrectedZVertical,0.6595203876495361,0.06133672222495079,-0.02653306350111961,0.7487099170684814,0.1268450170755386,-0.9843239784240723,-0.1225413307547569,14.63108444213867,-63.20449829101562,-15.54829788208008,2
2017-12-04 17:02:37.970 -0800,10,BF2B89E4-20AD-4334-A98B-17808832B17C,1512435753.438332,49.277192956445,-122.9073890059268,343.3391,-1,-1,10,65,-9999,57762.19383316667,0.127044677734375,-0.9822998046875,-0.1273193359375,57762.16740716667,0.01040869880446569,0.02858637114091054,-0.008736766272113949,57762.15609816667,-0.753234714320144,0.8026535601743798,1.393499282220504,0.0009641146752983332,0.008409071713685989,0.002343218773603439,0.002335891127586365,0.002527773380279541,0.004133164882659912,XArbitraryCorrectedZVertical,0.6595203876495361,0.06133672222495079,-0.02653306350111961,0.7487099170684814,0.1268450170755386,-0.9843239784240723,-0.1225413307547569,14.63108444213867,-63.20449829101562,-15.54829788208008,2
2017-12-04 17:02:38.014 -0800,11,BF2B89E4-20AD-4334-A98B-17808832B17C,1512435753.438332,49.277192956445,-122.9073890059268,343.3391,-1,-1,10,65,-9999,57762.22775916667,0.12396240234375,-0.986541748046875,-0.131134033203125,57762.20014216667,0.005177984107441063,0.01758858110331932,-0.005453088648046248,57762.19133316667,-0.7548134502117769,0.8051444400098496,1.393858006012433,0.01258187554776669,0.0216192714869976,0.002239201217889786,-0.0005680769681930542,0.002713024616241455,-0.005155682563781738,XArbitraryCorrectedZVertical,0.6597027778625488,0.0616600327193737,-0.02621356956660748,0.7485339641571045,0.1268955916166306,-0.984387218952179,-0.1219805702567101,14.69268417358398,-63.46409606933594,-15.46261596679688,2
2017-12-04 17:02:38.040 -0800,12,BF2B89E4-20AD-4334-A98B-17808832B17C,1512435753.438332,49.277192956445,-122.9073890059268,343.3391,-1,-1,10,65,-9999,57762.26049416667,0.1278076171875,-0.9859619140625,-0.1273345947265625,57762.23406816667,-0.001020257013609356,-7.456851052221867e-06,0.009652361054883192,57762.22650916667,-0.7551388279738769,0.8060507179964953,1.394148908902439,0.005239203106611967,0.01061307638883591,0.009818876162171364,0.0005667656660079956,-0.00166088342666626,-0.005317449569702148,XArbitraryCorrectedZVertical,0.6598069667816162,0.06181966885924339,-0.02596368081867695,0.7484374642372131,0.1267983466386795,-0.9844383597373962,-0.1216661930084229,14.68921661376953,-63.19457244873047,-15.31973648071289,2
2017-12-04 17:02:38.095 -0800,13,BF2B89E4-20AD-4334-A98B-17808832B17C,1512435753.438332,49.277192956445,-122.9073890059268,343.3391,-1,-1,10,65,-9999,57762.29441916667,0.1219940185546875,-0.9794464111328125,-0.122894287109375,57762.26799416667,-0.0009651295790447159,-0.001111070806781058,0.02037584550019625,57762.26174416667,-0.7526250653600473,0.8036563618367596,1.394769251571881,0.003282028948888183,-0.002578770974650979,0.02703366428613663,0.001741111278533936,-0.001414716243743896,-0.005789518356323242,XArbitraryCorrectedZVertical,0.6598734259605408,0.06159979104995728,-0.02565872110426426,0.7484074234962463,0.1260664910078049,-0.9845471978187561,-0.1215450540184975,14.56496047973633,-63.27263641357422,-15.40776062011719,2
2017-12-04 17:02:38.101 -0800,14,BF2B89E4-20AD-4334-A98B-17808832B17C,1512435753.438332,49.277192956445,-122.9073890059268,343.3391,-1,-1,10,65,-9999,57762.32834516667,0.12432861328125,-0.9810943603515625,-0.1223297119140625,57762.30072816667,-0.0178668814372326,-0.00445866429701066,0.04083611320694801,57762.29691916667,-0.7476561440287439,0.7988746245628847,1.395519254608579,-0.01053345203399658,0.003970285411924124,0.03886466473340988,-0.001724928617477417,0.002973556518554688,-0.000301361083984375,XArbitraryCorrectedZVertical,0.6598717570304871,0.06126552447676659,-0.02519146725535393,0.7484522461891174,0.124954916536808,-0.9846782684326172,-0.1216315999627113,14.60392379760742,-63.17193603515625,-15.17203903198242,2
2017-12-04 17:02:38.141 -0800,15,BF2B89E4-20AD-4334-A98B-17808832B17C,1512435753.438332,49.277192956445,-122.9073890059268,343.3391,-1,-1,10,65,-9999,57762.36108016667,0.1265106201171875,-0.9858245849609375,-0.11700439453125,57762.33465416667,-0.0221084981054018,-0.001178182466251055,0.04834702642929849,57762.33215416667,-0.7368898640966398,0.7882995625018312,1.396603623321205,-0.01786881685256958,0.005037274211645126,0.0646221935749054,0.001682497560977936,0.004733741283416748,0.0003224611282348633,XArbitraryCorrectedZVertical,0.6597204208374023,0.06059517338871956,-0.02438479103147984,0.7486671209335327,0.1229055151343346,-0.9848667979240417,-0.1221943795681,14.46562194824219,-63.03656768798828,-15.31546401977539,2
2017-12-04 17:02:38.171 -0800,16,BF2B89E4-20AD-4334-A98B-17808832B17C,1512435753.438332,49.277192956445,-122.9073890059268,343.3391,-1,-1,10,65,-9999,57762.39500616667,0.1276702880859375,-0.9896697998046875,-0.1257781982421875,57762.36858016667,-0.03709437187538669,-0.008886968557594417,0.01521810141703979,57762.36733016667,-0.7276107319929904,0.7790459411377982,1.397038462975962,-0.03179732710123062,-0.003765286412090063,0.0282771922647953,0.005042165517807007,-0.000882565975189209,0.006017148494720459,XArbitraryCorrectedZVertical,0.6594535112380981,0.06008575111627579,-0.02385671064257622,0.7489602565765381,0.1214684620499611,-0.9849420189857483,-0.1230215355753899,14.45259094238281,-63.20249938964844,-15.76826858520508,2
2017-12-04 17:02:38.201 -0800,17,BF2B89E4-20AD-4334-A98B-17808832B17C,1512435753.438332,49.277192956445,-122.9073890059268,343.3391,-1,-1,10,65,-9999,57762.42893216667,0.126800537109375,-0.9912872314453125,-0.1175079345703125,57762.40131516667,-0.03071397053577484,-0.01326094433194056,0.008773251579048034,57762.40256516667,-0.7190026467154015,0.7703728030631216,1.396812318239604,-0.03289477527141571,-0.004862607456743717,0.01970992423593998,0.009192802011966705,-0.00403439998626709,-0.001303136348724365,XArbitraryCorrectedZVertical,0.6590273380279541,0.05972860008478165,-0.023545753210783,0.7493737936019897,0.1205526888370514,-0.9849029183387756,-0.1242309212684631,14.20705032348633,-63.1265869140625,-15.66818618774414,2
2017-12-04 17:02:38.249 -0800,18,BF2B89E4-20AD-4334-A98B-17808832B17C,1512435753.438332,49.277192956445,-122.9073890059268,343.3391,-1,-1,10,65,-9999,57762.46166616667,0.1204681396484375,-0.9837188720703125,-0.132110595703125,57762.43524116667,-0.0201926200171988,-0.005539375067364815,-0.005242166289711973,57762.43774116667,-0.717406656697789,0.7683410033574716,1.39674948433943,-0.01384101063013077,-0.0004153805784881115,0.006738249678164721,0.006045490503311157,-0.006730914115905762,0.00701218843460083,XArbitraryCorrectedZVertical,0.6589375734329224,0.0595080703496933,-0.0236322209239006,0.7494675517082214,0.1203430518507957,-0.9848920702934265,-0.1245201304554939,14.23996353149414,-63.30967712402344,-15.55756378173828,2
2017-12-04 17:02:38.272 -0800,19,BF2B89E4-20AD-4334-A98B-17808832B17C,1512435753.438332,49.277192956445,-122.9073890059268,343.3391,-1,-1,10,65,-9999,57762.49559187501,0.107757568359375,-0.9879608154296875,-0.1226959228515625,57762.46916616667,0.05663105531609897,-0.05586086912884805,-0.02148931315195838,57762.472974875,-0.7173939238578867,0.7670165840570314,1.396763903291743,0.05238539353013039,-0.05515649542212486,-0.008368001319468021,0.0001013278961181641,-0.0008995532989501953,0.0007222890853881836,XArbitraryCorrectedZVertical,0.658925473690033,0.05901261419057846,-0.0240604542195797,0.7495037913322449,0.1201684474945068,-0.9848945140838623,-0.1246694624423981,14.12731170654297,-63.16134643554688,-15.71916961669922,2
2017-12-04 17:02:38.302 -0800,20,BF2B89E4-20AD-4334-A98B-17808832B17C,1512435753.438332,49.277192956445,-122.9073890059268,343.3391,-1,-1,10,65,-9999,57762.529517875,0.1339111328125,-0.98919677734375,-0.13916015625,57762.501900875,-0.0596199210074949,0.03607571275843138,0.03766002729091952,57762.508150875,-0.7177513329348946,0.7676712460032051,1.39771245813366,-0.06279614567756653,0.03348923474550247,0.04757281392812729,-0.01634463667869568,-0.0001558661460876465,-0.00831449031829834,XArbitraryCorrectedZVertical,0.6592192053794861,0.05891485884785652,-0.02375190518796444,0.7492629289627075,0.1196008622646332,-0.9850583672523499,-0.1239181607961655,14.27072525024414,-63.08008575439453,-15.68068313598633,2
2017-12-04 17:02:38.342 -0800,21,BF2B89E4-20AD-4334-A98B-17808832B17C,1512435753.438332,49.277192956445,-122.9073890059268,343.3391,-1,-1,10,65,-9999,57762.562252875,0.1210784912109375,-0.9970703125,-0.1444091796875,57762.53582687501,-0.05030737930770582,-0.1000810611329598,0.01885331630499795,57762.543385875,-0.7017118565598408,0.7499468991243914,1.39661461166831,-0.04288986325263977,-0.0982455313205719,0.02548389881849289,0.01415766775608063,-0.01015692949295044,-0.009606122970581055,XArbitraryCorrectedZVertical,0.6582204699516296,0.05781085044145584,-0.02383600361645222,0.7502232789993286,0.1181207820773125,-0.9848687052726746,-0.1268074363470078,14.08671569824219,-63.10769653320312,-15.79961013793945,2
2017-12-04 17:02:38.372 -0800,22,BF2B89E4-20AD-4334-A98B-17808832B17C,1512435753.438332,49.277192956445,-122.9073890059268,343.3391,-1,-1,10,65,-9999,57762.59617887501,0.114349365234375,-0.9942626953125,-0.1453857421875,57762.569752875,-0.03711035084192716,-0.1439971201405844,0.05219263104337291,57762.578561875,-0.6913007946120452,0.7356087428311262,1.397126724492693,-0.042329091578722,-0.1564739793539047,0.06537183374166489,-0.001204714179039001,-0.009793698787689209,-0.02398699522018433,XArbitraryCorrectedZVertical,0.6579034924507141,0.05573757737874985,-0.02452760189771652,0.75063556432724,0.115950807929039,-0.9849572777748108,-0.1281126290559769,13.86634063720703,-62.98131561279297,-15.81328582763672,2
2017-12-04 17:02:38.411 -0800,23,BF2B89E4-20AD-4334-A98B-17808832B17C,1512435753.438332,49.277192956445,-122.9073890059268,343.3391,-1,-1,10,65,-9999,57762.630104875,0.0926361083984375,-0.9765777587890625,-0.138885498046875,57762.602487875,-0.1141824991049293,-0.1859578862758729,0.1159673496675004,57762.613795875,-0.6639167530503536,0.7023228989695217,1.396716844369926,-0.1826084852218628,-0.08988997340202332,0.1847615092992783,-0.03172935545444489,-0.05321478843688965,0.01949191093444824,XArbitraryCorrectedZVertical,0.6566260457038879,0.05232537537813187,-0.02527248486876488,0.7519738078117371,0.1118837669491768,-0.9848864078521729,-0.1322085857391357,13.68523025512695,-62.81541442871094,-16.26483535766602,2
2017-12-04 17:02:38.442 -0800,24,BF2B89E4-20AD-4334-A98B-17808832B17C,1512435753.438332,49.277192956445,-122.9073890059268,343.3391,-1,-1,10,65,-9999,57762.662838875,0.10400390625,-0.96697998046875,-0.1311492919921875,57762.63641287501,-0.3677990581387013,-0.03946964525162835,0.2141455822015986,57762.648971875,-0.5910888266489147,0.6293224868674545,1.392188767161214,-0.3367505967617035,-0.07162429392337799,0.2240122258663177,-0.01485937833786011,-0.002632796764373779,0.009799480438232422,XArbitraryCorrectedZVertical,0.6524801850318909,0.04959925636649132,-0.02267318218946457,0.7558399438858032,0.1045657992362976,-0.9840919971466064,-0.1436190456151962,13.18399429321289,-62.73123168945312,-16.55083465576172,2
2017-12-04 17:02:38.490 -0800,25,BF2B89E4-20AD-4334-A98B-17808832B17C,1512435753.438332,49.277192956445,-122.9073890059268,343.3391,-1,-1,10,65,-9999,57762.69676487501,0.1638336181640625,-0.9385223388671875,-0.087799072265625,57762.670338875,-0.02318068676026771,-0.1308043527325499,0.09495261182179417,57762.684206875,-0.55872334865428,0.5931145232071949,1.392120815420234,0.1614783704280853,-0.1394608616828918,0.007523057051002979,0.05889818072319031,0.04700720310211182,0.04064548015594482,XArbitraryCorrectedZVertical,0.6512742638587952,0.04646646231412888,-0.02224624156951904,0.75709068775177,0.09933546185493469,-0.9840799570083618,-0.1473654061555862,12.70963668823242,-62.33425903320312,-16.87207794189453,2
2017-12-04 17:02:38.503 -0800,26,BF2B89E4-20AD-4334-A98B-17808832B17C,1512435753.438332,49.277192956445,-122.9073890059268,343.3391,-1,-1,10,65,-9999,57762.730690875,0.0411376953125,-0.9545135498046875,-0.180938720703125,57762.703073875,0.4357655923186135,0.04623513968486565,-0.2252142123241859,57762.719382875,-0.6326193791636316,0.6679695300529411,1.400230342153321,0.4519493877887726,0.3676738440990448,-0.169494092464447,0.01587168127298355,-0.033843994140625,0.09573155641555786,XArbitraryCorrectedZVertical,0.6564912796020508,0.04891550913453102,-0.02401113323867321,0.7523617744445801,0.1051305159926414,-0.9854888319969177,-0.1332529485225677,13.27996444702148,-62.84920501708984,-16.17867660522461,2
2017-12-04 17:02:38.543 -0800,27,BF2B89E4-20AD-4334-A98B-17808832B17C,1512435753.438332,49.277192956445,-122.9073890059268,343.3391,-1,-1,10,65,-9999,57762.763425875,0.11566162109375,-0.9673919677734375,-0.1935272216796875,57762.736999875,0.3082102961159603,0.2237028684055659,0.04697097109405455,57762.75461687501,-0.6746173755517128,0.7179299428111394,1.409083680825759,0.1485633701086044,0.1174574792385101,0.1105580925941467,-0.004027515649795532,-0.01179581880569458,-0.06138718128204346,XArbitraryCorrectedZVertical,0.6608155369758606,0.05188971012830734,-0.02136533707380295,0.7484465837478638,0.1059104427695274,-0.9869529604911804,-0.1212605684995651,13.290771484375,-63.09556579589844,-15.72825241088867,2
2017-12-04 17:02:38.573 -0800,28,BF2B89E4-20AD-4334-A98B-17808832B17C,1512435753.438332,49.277192956445,-122.9073890059268,343.3391,-1,-1,10,65,-9999,57762.797351875,0.148956298828125,-0.995819091796875,-0.15081787109375,57762.770925875,-0.1264623348912847,-0.1628752038437201,0.01946051703353602,57762.789792875,-0.6598930568463398,0.6990506795773411,1.407573091670868,-0.1705850064754486,-0.2896382212638855,-0.0353325754404068,0.04877270013093948,-0.001374244689941406,-0.03540915250778198,XArbitraryCorrectedZVertical,0.6597785353660583,0.05001853778958321,-0.02242369018495083,0.7494574189186096,0.1045628637075424,-0.9867086410522461,-0.1243808567523956,13.25986099243164,-63.08290863037109,-15.63496780395508,2
2017-12-04 17:02:38.604 -0800,29,BF2B89E4-20AD-4334-A98B-17808832B17C,1512435753.438332,49.277192956445,-122.9073890059268,343.3391,-1,-1,10,65,-9999,57762.831277875,0.181793212890625,-1.019454956054688,-0.1707916259765625,57762.803659875,-0.131411819777197,-0.4648595619632931,-0.1015364786686881,57762.789792875,-0.6598930568463398,0.6990506795773411,1.407573091670868,-0.1705850064754486,-0.2896382212638855,-0.0353325754404068,0.04877270013093948,-0.001374244689941406,-0.03540915250778198,XArbitraryCorrectedZVertical,0.6597785353660583,0.05001853778958321,-0.02242369018495083,0.7494574189186096,0.1045628637075424,-0.9867086410522461,-0.1243808567523956,13.25986099243164,-63.08290863037109,-15.63496780395508,2
2017-12-04 17:02:38.650 -0800,30,BF2B89E4-20AD-4334-A98B-17808832B17C,1512435753.438332,49.277192956445,-122.9073890059268,343.3391,-1,-1,10,65,-9999,57762.864011875,0.1644134521484375,-1.08074951171875,-0.2232666015625,57762.837585875,-0.05466244663831239,-0.6391890216554441,-0.3156077586758734,57762.860202875,-0.6968503388448646,0.6933272423205976,1.39434375890484,0.01887847110629082,-0.9908414483070374,-0.3079070150852203,0.05335888266563416,-0.06510317325592041,-0.05877923965454102,XArbitraryCorrectedZVertical,0.656507134437561,0.03866139799356461,-0.04114292189478874,0.7522034645080566,0.1121837198734283,-0.9844725728034973,-0.1350073516368866,13.33290100097656,-62.86312866210938,-16.27469253540039,2
2017-12-04 17:02:38.674 -0800,31,BF2B89E4-20AD-4334-A98B-17808832B17C,1512435753.438332,49.277192956445,-122.9073890059268,343.3391,-1,-1,10,65,-9999,57762.897937875,0.09942626953125,-1.053466796875,-0.223419189453125,57762.871511875,-0.1240838657217349,-1.345618067145427,-0.2246160663433541,57762.860202875,-0.6968503388448646,0.6933272423205976,1.39434375890484,0.01887847110629082,-0.9908414483070374,-0.3079070150852203,0.05335888266563416,-0.06510317325592041,-0.05877923965454102,XArbitraryCorrectedZVertical,0.656507134437561,0.03866139799356461,-0.04114292189478874,0.7522034645080566,0.1121837198734283,-0.9844725728034973,-0.1350073516368866,13.33290100097656,-62.86312866210938,-16.27469253540039,2
2017-12-04 17:02:38.705 -0800,32,BF2B89E4-20AD-4334-A98B-17808832B17C,1512435753.438332,49.277192956445,-122.9073890059268,343.3391,-1,-1,10,65,-9999,57762.931863875,0.123779296875,-1.021499633789062,-0.2110443115234375,57762.904246875,-0.2441162644771323,-1.543844071298859,0.2301610340490081,57762.89543787501,-0.6996460489611978,0.6479352794159886,1.386845615643605,-0.2862971127033234,-1.538762450218201,0.08908679336309433,-0.004849687218666077,-0.07572442293167114,-0.08140796422958374,XArbitraryCorrectedZVertical,0.653131902217865,0.02231842279434204,-0.05872495844960213,0.7546331882476807,0.1103947311639786,-0.9831287264823914,-0.1458412110805511,12.64630126953125,-62.87805938720703,-17.01755905151367,2
2017-12-04 17:02:38.744 -0800,33,BF2B89E4-20AD-4334-A98B-17808832B17C,1512435753.438332,49.277192956445,-122.9073890059268,343.3391,-1,-1,10,65,-9999,57762.964597875,0.1965484619140625,-0.883758544921875,-0.0813140869140625,57762.938172875,0.6875949039448334,-0.903526934605657,0.4826428201422973,57762.930613875,-0.6503483665868754,0.5427814231369006,1.390635812017989,0.4839760661125183,-1.885141253471375,0.372993528842926,0.002373144030570984,-0.00467991828918457,-0.01629310846328735,XArbitraryCorrectedZVertical,0.6505999565124512,-0.002122649922966957,-0.07359404116868973,0.7558427453041077,0.09255178272724152,-0.9838149547576904,-0.153430387377739,11.20570755004883,-62.77679443359375,-16.74665069580078,2
2017-12-04 17:02:38.775 -0800,34,BF2B89E4-20AD-4334-A98B-17808832B17C,1512435753.438332,49.277192956445,-122.9073890059268,343.3391,-1,-1,10,65,-9999,57762.998523875,0.070953369140625,-0.9981689453125,-0.000762939453125,57762.972097875,0.6777989985071948,-0.1806534020166531,0.06073258971093001,57762.96584787501,-0.6300021368086384,0.4938463190521583,1.419842516924931,0.6621922850608826,-0.3547543287277222,0.3672367334365845,0.1252675652503967,0.104869544506073,0.05109488964080811,XArbitraryCorrectedZVertical,0.6583411693572998,-0.01955582015216351,-0.07637305557727814,0.748579204082489,0.07128088921308517,-0.988628089427948,-0.1324089467525482,9.909336090087891,-63.22303771972656,-15.56748199462891,2
2017-12-04 17:02:38.809 -0800,35,BF2B89E4-20AD-4334-A98B-17808832B17C,1512435753.438332,49.277192956445,-122.9073890059268,343.3391,-1,-1,10,65,-9999,57763.03244987501,0.13250732421875,-0.8951568603515625,-0.1266326904296875,57763.00483287501,0.48928873864259,-0.3060856261982951,-0.4234719080945897,57763.001023875,-0.7377591109000912,0.5934476779559791,1.436297113220692,0.5380396246910095,-0.2712045907974243,-0.4010857343673706,0.01658213138580322,-0.02053648233413696,0.124681830406189,XArbitraryCorrectedZVertical,0.6662999391555786,-0.02152026258409023,-0.08020474016666412,0.7410450577735901,0.07498586177825928,-0.9909685850143433,-0.1111625358462334,10.37249755859375,-63.42691802978516,-14.51321411132812,2
2017-12-04 17:02:38.845 -0800,36,BF2B89E4-20AD-4334-A98B-17808832B17C,1512435753.438332,49.277192956445,-122.9073890059268,343.3391,-1,-1,10,65,-9999,57763.06518487501,0.3659820556640625,-1.000213623046875,-0.35833740234375,57763.038758875,0.4512020729450398,-0.4546058591342701,-0.120422285538985,57763.03625887501,-0.8876707806038708,0.7286875391251675,1.443016238266885,0.4848641455173492,-0.442787766456604,-0.1761270761489868,0.05864013731479645,0.1046859622001648,-0.03095442056655884,XArbitraryCorrectedZVertical,0.6722490191459656,-0.02339436113834381,-0.08867662400007248,0.7346222400665283,0.08485350757837296,-0.9918472170829773,-0.09506791830062866,10.77234649658203,-63.53384399414062,-13.55613708496094,2
2017-12-04 17:02:38.890 -0800,37,BF2B89E4-20AD-4334-A98B-17808832B17C,1512435753.438332,49.277192956445,-122.9073890059268,343.3391,-1,-1,10,65,-9999,57763.099110875,0.290679931640625,-1.028717041015625,-0.0948028564453125,57763.07268487501,0.5558067795056082,-0.9838611888878973,0.1448487990571918,57763.071434875,-0.9943596816729083,0.8126006791696975,1.456005585639415,0.6126024723052979,-0.9039119482040405,0.130572497844696,0.2828201055526733,-0.00679481029510498,-0.2795811295509338,XArbitraryCorrectedZVertical,0.6779266595840454,-0.03220720961689949,-0.09592787176370621,0.7281315922737122,0.08316195011138916,-0.9934187531471252,-0.07875628024339676,10.5302848815918,-63.69734191894531,-12.40076065063477,2
2017-12-04 17:02:38.905 -0800,38,BF2B89E4-20AD-4334-A98B-17808832B17C,1512435753.438332,49.277192956445,-122.9073890059268,343.3391,-1,-1,10,65,-9999,57763.13303687501,-0.2625274658203125,-0.9754486083984375,-0.18115234375,57763.10541887501,0.6283872402740827,-0.5367904777418974,0.3817990296731388,57763.10666887501,-1.035154524762053,0.8210117026657495,1.476688332203669,0.5466042757034302,-0.6724971532821655,0.4526386857032776,0.08972421288490295,-0.008987307548522949,-0.05896395444869995,XArbitraryCorrectedZVertical,0.6823446154594421,-0.04885956645011902,-0.1021059826016426,0.7222138047218323,0.06876882910728455,-0.9955751299858093,-0.06403713673353195,9.539436340332031,-63.82051086425781,-11.44329071044922,2
2017-12-04 17:02:38.946 -0800,39,BF2B89E4-20AD-4334-A98B-17808832B17C,1512435753.438332,49.277192956445,-122.9073890059268,343.3391,-1,-1,10,65,-9999,57763.16577087501,-0.2287139892578125,-0.886688232421875,-0.063323974609375,57763.139344875,2.259493779431023,0.891962423888097,0.04259539742305436,57763.141844875,-1.52074969518396,1.313915477050063,1.504946474776411,2.139329195022583,0.8770145773887634,0.03060431405901909,-0.3453357815742493,0.05357301235198975,-0.1617487072944641,XArbitraryCorrectedZVertical,0.6993894577026367,-0.04995337128639221,-0.0959608182311058,0.7065058946609497,0.06364326924085617,-0.9978326559066772,-0.01671809516847134,9.458309173583984,-64.32540893554688,-8.656402587890625,2
2017-12-04 17:02:38.976 -0800,40,BF2B89E4-20AD-4334-A98B-17808832B17C,1512435753.438332,49.277192956445,-122.9073890059268,343.3391,-1,-1,10,65,-9999,57763.199696875,0.1657562255859375,-1.180999755859375,0.002471923828125,57763.17327087501,2.476894809749134,0.6791785159518559,0.5483523252983674,57763.177079875,-2.775172432534345,2.591041291351326,1.478871937251744,2.558130264282227,0.6504212617874146,0.6072803139686584,-0.3659240901470184,0.1235855221748352,0.09466743469238281,XArbitraryCorrectedZVertical,0.7325015664100647,-0.05056053400039673,-0.07931853085756302,0.6742355227470398,0.04802247881889343,-0.9957779049873352,0.07822982221841812,8.582319259643555,-65.0738525390625,-2.466789245605469,2
2017-12-04 17:02:39.006 -0800,41,BF2B89E4-20AD-4334-A98B-17808832B17C,1512435753.438332,49.277192956445,-122.9073890059268,343.3391,-1,-1,10,65,-9999,57763.23362287501,-0.2759552001953125,-0.747711181640625,0.209075927734375,57763.20600587501,0.6565413803700734,-1.863631128673394,0.6977178455643335,57763.21225587501,-3.058015086322394,2.85115075032971,1.441718048203745,0.6121343970298767,-1.901465654373169,0.7090390920639038,0.2772402167320251,-0.2445708513259888,-0.2436432838439941,XArbitraryCorrectedZVertical,0.7466723322868347,-0.06437641382217407,-0.08133392781019211,0.657054603099823,0.03686194866895676,-0.9916809797286987,0.1233277916908264,7.713729858398438,-65.16287994384766,-0.1363754272460938,2
2017-12-04 17:02:39.050 -0800,42,BF2B89E4-20AD-4334-A98B-17808832B17C,1512435753.438332,49.277192956445,-122.9073890059268,343.3391,-1,-1,10,65,-9999,57763.26635687501,0.0675048828125,-0.916412353515625,0.0953369140625,57763.239931875,-0.7370290327311021,-1.616351827769574,0.003389405119343846,57763.247489875,0.7994341639590282,-1.12130967947886,1.499444280253937,-0.8202754855155945,-1.560933351516724,0.02632243931293488,-0.1246184706687927,0.2113837599754333,0.226746141910553,XArbitraryCorrectedZVertical,0.6830679774284363,-0.1339037269353867,-0.09257134795188904,0.7119820117950439,-0.06420904397964478,-0.9974555373191833,-0.03097585961222649,7.126550674438477,-65.10102844238281,-0.8676033020019531,2
2017-12-04 17:02:39.076 -0800,43,BF2B89E4-20AD-4334-A98B-17808832B17C,1512435753.438332,49.277192956445,-122.9073890059268,343.3391,-1,-1,10,65,-9999,57763.300282875,0.0193939208984375,-1.034255981445312,-0.0625457763671875,57763.27385687501,-1.164201935792575,-0.9059221816900743,0.4014022921411031,57763.28266587501,0.4808496200244718,-0.845576238420039,1.468266512847695,-1.110906839370728,-0.7699717283248901,0.3976466059684753,0.1768598556518555,-0.01088207960128784,0.1131314635276794,XArbitraryCorrectedZVertical,0.6659148335456848,-0.1503757983446121,-0.1057607755064964,0.7230209112167358,-0.07659435272216797,-0.9947484135627747,-0.06788910925388336,6.653621673583984,-65.31235504150391,-2.731830596923828,2
2017-12-04 17:02:39.132 -0800,44,BF2B89E4-20AD-4334-A98B-17808832B17C,1512435753.438332,49.277192956445,-122.9073890059268,343.3391,-1,-1,10,65,-9999,57763.33420887501,0.024169921875,-1.10015869140625,-0.00115966796875,57763.306591875,-0.5054778285930727,-0.1221900918705796,0.2204825740154421,57763.317900875,0.3835430313572656,-0.7585128078085411,1.444063868026399,-0.3545283079147339,-0.07938200235366821,0.277728408575058,0.1145571917295456,-0.06774270534515381,0.01523631811141968,XArbitraryCorrectedZVertical,0.6556485891342163,-0.1557337045669556,-0.1073303669691086,0.730993926525116,-0.08693877607584,-0.9919801950454712,-0.09174387902021408,5.645208358764648,-65.09144592285156,-4.173160552978516,2
2017-12-04 17:02:39.147 -0800,45,BF2B89E4-20AD-4334-A98B-17808832B17C,1512435753.438332,49.277192956445,-122.9073890059268,343.3391,-1,-1,10,65,-9999,57763.366943875,-0.0230255126953125,-1.063522338867188,0.1583251953125,57763.340517875,0.1332933430873379,0.08236198513622656,0.6775848803555525,57763.35307587501,0.4886270511078347,-0.8611425478677963,1.42993887801645,0.2084553688764572,0.1612296104431152,0.7243297696113586,0.1003800928592682,-0.105713963508606,0.168470561504364,XArbitraryCorrectedZVertical,0.654303252696991,-0.161709263920784,-0.09952957928180695,0.7320048213005066,-0.1064988672733307,-0.9900959730148315,-0.0914747342467308,4.644487380981445,-65.61646270751953,-3.965061187744141,2
2017-12-04 17:02:39.177 -0800,46,BF2B89E4-20AD-4334-A98B-17808832B17C,1512435753.438332,49.277192956445,-122.9073890059268,343.3391,-1,-1,10,65,-9999,57763.400869875,-0.0030670166015625,-1.031112670898438,0.10546875,57763.374443875,0.2402014176747158,0.3704696760798327,0.5108712624327012,57763.388310875,0.6199883594924029,-0.9797348610391478,1.418960182697397,0.2068363428115845,0.2349408566951752,0.4699982404708862,0.1790143996477127,-0.06739795207977295,0.1895248889923096,XArbitraryCorrectedZVertical,0.6563245058059692,-0.1646075844764709,-0.08767330646514893,0.7310649156570435,-0.1255933791399002,-0.9884949922561646,-0.08428497612476349,3.25792121887207,-65.63755798339844,-3.288913726806641,2
2017-12-04 17:02:39.211 -0800,47,BF2B89E4-20AD-4334-A98B-17808832B17C,1512435753.438332,49.277192956445,-122.9073890059268,343.3391,-1,-1,10,65,-9999,57763.434794875,0.0106964111328125,-1.021499633789062,0.0970306396484375,57763.407177875,0.07479354763433037,-0.08777299583904954,0.188650075821834,57763.42348687501,0.2580679971004247,-0.6158985203820513,1.522878813963114,0.02263352833688259,-0.1431492865085602,0.1036050096154213,-0.02703173458576202,-0.0005527734756469727,0.1683551669120789,XArbitraryCorrectedZVertical,0.6802717447280884,-0.1329712569713593,-0.1186331287026405,0.7109677791595459,-0.02767102792859077,-0.9988521933555603,-0.03909799456596375,2.77955436706543,-65.74702453613281,-3.298988342285156,2
2017-12-04 17:02:39.247 -0800,48,BF2B89E4-20AD-4334-A98B-17808832B17C,1512435753.438332,49.277192956445,-122.9073890059268,343.3391,-1,-1,10,65,-9999,57763.467529875,0.034210205078125,-0.956146240234375,0.1272735595703125,57763.441103875,-0.08574952604280735,-0.4308366137730948,0.1714591046692635,57763.458720875,2.25971672771038,-2.631579061887225,1.52238424950229,-0.13999904692173,-0.4456164240837097,0.1548680663108826,0.07365883886814117,0.03042930364608765,0.07040536403656006,XArbitraryCorrectedZVertical,0.7078505754470825,-0.1416511982679367,-0.1197062805294991,0.6815811991691589,-0.02362526766955853,-0.9988283514976501,0.04223499819636345,2.370283126831055,-65.89662170410156,-3.287445068359375,2
2017-12-04 17:02:39.289 -0800,49,BF2B89E4-20AD-4334-A98B-17808832B17C,1512435753.438332,49.277192956445,-122.9073890059268,343.3391,-1,-1,10,65,-9999,57763.50395529167,0.045928955078125,-0.95751953125,0.101531982421875,57763.475029875,-0.3010924654705056,-0.2170630751757804,-0.1102753754696741,57763.49389629167,2.550293423025348,-2.930731023532248,1.514035450793171,-0.4078219532966614,-0.06608907133340836,-0.206587627530098,0.0485556572675705,0.06862574815750122,0.07021415233612061,XArbitraryCorrectedZVertical,0.7125455141067505,-0.1414749026298523,-0.1258077621459961,0.675600528717041,-0.0118735246360302,-0.9983895421028137,0.05547251552343369,2.650009155273438,-65.81300354003906,-3.709209442138672,2
2017-12-04 17:02:39.308 -0800,50,BF2B89E4-20AD-4334-A98B-17808832B17C,1512435753.438332,49.277192956445,-122.9073890059268,343.3391,-1,-1,10,65,-9999,57763.53413129167,-0.0109100341796875,-0.99102783203125,0.1267852783203125,57763.50776329167,-0.5756159043258355,-0.05628005068442653,-0.1481905335930232,57763.49389629167,2.550293423025348,-2.930731023532248,1.514035450793171,-0.4078219532966614,-0.06608907133340836,-0.206587627530098,0.0485556572675705,0.06862574815750122,0.07021415233612061,XArbitraryCorrectedZVertical,0.7125455141067505,-0.1414749026298523,-0.1258077621459961,0.675600528717041,-0.0118735246360302,-0.9983895421028137,0.05547251552343369,2.650009155273438,-65.81300354003906,-3.709209442138672,2
2017-12-04 17:02:39.338 -0800,51,BF2B89E4-20AD-4334-A98B-17808832B17C,1512435753.438332,49.277192956445,-122.9073890059268,343.3391,-1,-1,10,65,-9999,57763.56430729167,-0.11175537109375,-1.033523559570312,0.06817626953125,57763.53793929167,-0.7204172991156239,0.01898354488230283,0.160922307816365,57763.52913129167,2.709051154670525,-3.091092227446305,1.509382901059825,-0.6752674579620361,0.01768636330962181,0.03768443316221237,0.009918928146362305,0.01061171293258667,0.06719553470611572,XArbitraryCorrectedZVertical,0.7149980068206787,-0.139381617307663,-0.1289962977170944,0.6728377938270569,-0.003098248271271586,-0.9981147646903992,0.06129876896739006,2.949237823486328,-65.84638214111328,-5.066169738769531,2
2017-12-04 17:02:39.370 -0800,52,BF2B89E4-20AD-4334-A98B-17808832B17C,1512435753.438332,49.277192956445,-122.9073890059268,343.3391,-1,-1,10,65,-9999,57763.59448229167,-0.07025146484375,-1.081008911132812,-0.0094451904296875,57763.56811529167,-0.5724273015526837,-0.06407512319508846,0.07800478727674791,57763.56430729167,2.808310298228796,3.09120843150414,1.514113201411732,-0.6580358147621155,-0.09984623640775681,0.1516895741224289,-0.1016387045383453,-0.0165291428565979,0.01951277256011963,XArbitraryCorrectedZVertical,0.7136954069137573,-0.1375872641801834,-0.1319372951984406,0.6740187406539917,0.00285329413600266,-0.9983939528465271,0.05658277869224548,2.485866546630859,-65.77259063720703,-6.265739440917969,2
2017-12-04 17:02:39.398 -0800,53,BF2B89E4-20AD-4334-A98B-17808832B17C,1512435753.438332,49.277192956445,-122.9073890059268,343.3391,-1,-1,10,65,-9999,57763.62465829167,-0.0833587646484375,-1.04168701171875,-0.016204833984375,57763.59829129167,-0.06777478658142654,0.04150270242779485,0.1245049114900764,57763.59954129167,2.940532257979226,2.958334645600338,1.510043751154065,-0.1349001675844193,0.03767858445644379,0.09828468412160873,-0.08122387528419495,-0.08157205581665039,-0.07658779621124268,XArbitraryCorrectedZVertical,0.7152460813522339,-0.135170966386795,-0.1347886621952057,0.6722973585128784,0.0110639575868845,-0.9981551170349121,0.05969629436731339,2.334598541259766,-65.61407470703125,-7.205436706542969,2
2017-12-04 17:02:39.451 -0800,54,BF2B89E4-20AD-4334-A98B-17808832B17C,1512435753.438332,49.277192956445,-122.9073890059268,343.3391,-1,-1,10,65,-9999,57763.65483429167,-0.0314178466796875,-1.058670043945312,0.040252685546875,57763.62846729167,0.4304957291535647,0.1414564644606488,0.4004531415285988,57763.63471729167,2.664075497023235,-3.044871815766686,1.49221125603282,0.4475080966949463,0.148803174495697,0.418811172246933,-0.06427270174026489,-0.04834377765655518,-0.09142541885375977,XArbitraryCorrectedZVertical,0.7204318046569824,-0.1415822207927704,-0.1258503943681717,0.6671536564826965,-0.007580939214676619,-0.9969137907028198,0.07813502103090286,1.952358245849609,-65.64978790283203,-6.698165893554688,2
2017-12-04 17:02:39.458 -0800,55,BF2B89E4-20AD-4334-A98B-17808832B17C,1512435753.438332,49.277192956445,-122.9073890059268,343.3391,-1,-1,10,65,-9999,57763.68501029167,-0.08154296875,-1.035537719726562,0.0595245361328125,57763.65864329167,0.3862515686996423,0.2434853616148925,0.4056239351010967,57763.66995129167,2.389068689455206,-2.762319024130539,1.473428941922419,0.3421647548675537,0.2715868651866913,0.345939576625824,-0.02269233763217926,-0.05425125360488892,-0.01881766319274902,XArbitraryCorrectedZVertical,0.723051905632019,-0.1494940966367722,-0.1125934794545174,0.6649587750434875,-0.03599296137690544,-0.9952635169029236,0.09030508995056152,0.6961479187011719,-65.54812622070312,-5.742591857910156,2
2017-12-04 17:02:39.489 -0800,56,BF2B89E4-20AD-4334-A98B-17808832B17C,1512435753.438332,49.277192956445,-122.9073890059268,343.3391,-1,-1,10,65,-9999,57763.71518629167,-0.0466461181640625,-1.0169677734375,-0.0159759521484375,57763.68881929167,0.2313099217432683,0.2872027488051972,0.06531082994088522,57763.70512729167,2.333827804605313,-2.69752454069988,1.468222294664279,0.228730708360672,0.14736707508564,0.006085418164730072,-0.01847927272319794,-0.0351327657699585,-0.08413183689117432,XArbitraryCorrectedZVertical,0.7239104509353638,-0.1489469110965729,-0.1064741387963295,0.6651554107666016,-0.04399020224809647,-0.9947438836097717,0.09246304631233215,0.4712028503417969,-65.47927093505859,-5.609176635742188,2
2017-12-04 17:02:39.530 -0800,57,BF2B89E4-20AD-4334-A98B-17808832B17C,1512435753.438332,49.277192956445,-122.9073890059268,343.3391,-1,-1,10,65,-9999,57763.74536229167,0.0048980712890625,-0.9664764404296875,0.05645751953125,57763.71899429167,0.2601407710722481,-0.1399033089129146,-0.05642918770547097,57763.70512729167,2.333827804605313,-2.69752454069988,1.468222294664279,0.228730708360672,0.14736707508564,0.006085418164730072,-0.01847927272319794,-0.0351327657699585,-0.08413183689117432,XArbitraryCorrectedZVertical,0.7239104509353638,-0.1489469110965729,-0.1064741387963295,0.6651554107666016,-0.04399020224809647,-0.9947438836097717,0.09246304631233215,0.4712028503417969,-65.47927093505859,-5.609176635742188,2
2017-12-04 17:02:39.549 -0800,58,BF2B89E4-20AD-4334-A98B-17808832B17C,1512435753.438332,49.277192956445,-122.9073890059268,343.3391,-1,-1,10,65,-9999,57763.77553829167,0.029937744140625,-0.9621429443359375,0.0921630859375,57763.74917029167,0.282084685822283,-0.1794347395018328,0.03688025372374432,57763.74036229167,2.359179341083704,-2.726746978308023,1.465343376582106,0.3023984730243683,-0.2269649356603622,-0.001373279839754105,0.03419883549213409,0.01925581693649292,-0.05300843715667725,XArbitraryCorrectedZVertical,0.725017786026001,-0.1500441879034042,-0.1080452352762222,0.6634470820426941,-0.04242332279682159,-0.9944449663162231,0.09632809460163116,0.4889717102050781,-65.33657073974609,-5.034156799316406,2
2017-12-04 17:02:39.579 -0800,59,BF2B89E4-20AD-4334-A98B-17808832B17C,1512435753.438332,49.277192956445,-122.9073890059268,343.3391,-1,-1,10,65,-9999,57763.80571329167,0.0155792236328125,-1.000106811523438,0.0648345947265625,57763.77934629167,0.0625608497992694,0.08687870634500094,0.08619054551932447,57763.77553829167,2.343709509839886,-2.715177134842425,1.458676166836375,0.1416871547698975,0.009825682267546654,0.07778636366128922,0.07633557915687561,0.0323411226272583,-0.01301205158233643,XArbitraryCorrectedZVertical,0.7262781858444214,-0.1531404554843903,-0.107608400285244,0.6614288687705994,-0.04627576842904091,-0.9937211275100708,0.1018640026450157,0.3663406372070312,-65.49915313720703,-4.5650634765625,2
2017-12-04 17:02:39.610 -0800,60,BF2B89E4-20AD-4334-A98B-17808832B17C,1512435753.438332,49.277192956445,-122.9073890059268,343.3391,-1,-1,10,65,-9999,57763.83588929167,-0.09368896484375,-0.9850921630859375,0.0355072021484375,57763.80952229167,-0.1513855279527912,0.07417276478423289,0.2619828795982559,57763.81077229167,2.24007586054333,-2.607833308619425,1.468798611240463,-0.1334241181612015,0.08373162895441055,0.2567473649978638,0.05674633383750916,-0.006097555160522461,-0.02640676498413086,XArbitraryCorrectedZVertical,0.7214375138282776,-0.1528256237506866,-0.1054185703396797,0.6671273708343506,-0.05180248990654945,-0.994802713394165,0.08765551447868347,-0.02567481994628906,-65.33760070800781,-4.671775817871094,2
2017-12-04 17:02:39.640 -0800,61,BF2B89E4-20AD-4334-A98B-17808832B17C,1512435753.438332,49.277192956445,-122.9073890059268,343.3391,-1,-1,10,65,-9999,57763.86606529167,-0.075469970703125,-1.006866455078125,0.1107330322265625,57763.83969829167,-0.03471510375750989,-0.02329786584823119,0.2886086315446501,57763.84594829167,2.175152420673851,-2.54222878859387,1.471427348094676,-0.02193043380975723,-0.02803563140332699,0.2941725254058838,-0.03749603033065796,0.009776473045349121,-0.04713940620422363,XArbitraryCorrectedZVertical,0.7192664742469788,-0.1536646783351898,-0.1041243225336075,0.6694782376289368,-0.05596404895186424,-0.9950669407844543,0.08191418647766113,-0.5785617828369141,-64.97100830078125,-4.553138732910156,2
2017-12-04 17:02:39.690 -0800,62,BF2B89E4-20AD-4334-A98B-17808832B17C,1512435753.438332,49.277192956445,-122.9073890059268,343.3391,-1,-1,10,65,-9999,57763.89624129167,-0.0691070556640625,-1.033355712890625,0.0698089599609375,57763.86987429167,0.08391993437392291,0.07155700796155706,0.08400515552880544,57763.88118229167,2.219803080346125,-2.586856338375755,1.470849078134174,0.08992861956357956,0.1173324510455132,0.07439748197793961,-0.02350801229476929,-0.01530551910400391,0.04657495021820068,XArbitraryCorrectedZVertical,0.7204895615577698,-0.1526567041873932,-0.1051125600934029,0.66823810338974,-0.05255704745650291,-0.9950094223022461,0.08481855690479279,-0.8894710540771484,-64.92523956298828,-4.654014587402344,2
2017-12-04 17:02:39.700 -0800,63,BF2B89E4-20AD-4334-A98B-17808832B17C,1512435753.438332,49.277192956445,-122.9073890059268,343.3391,-1,-1,10,65,-9999,57763.92641729167,-0.1186676025390625,-1.019805908203125,0.03509521484375,57763.90005029167,0.1450466719261846,0.06067692964414734,0.1823762009258253,57763.91635829167,2.188609989569776,-2.553076513582536,1.466281359833115,0.191526934504509,0.0109432702884078,0.2855025231838226,-0.03238871693611145,-0.02326375246047974,-0.04935801029205322,XArbitraryCorrectedZVertical,0.7209451198577881,-0.1537024527788162,-0.1022401452064514,0.6679524779319763,-0.05791280046105385,-0.9945432543754578,0.086772620677948,-1.289134979248047,-64.68145751953125,-4.741710662841797,2
2017-12-04 17:02:39.730 -0800,64,BF2B89E4-20AD-4334-A98B-17808832B17C,1512435753.438332,49.277192956445,-122.9073890059268,343.3391,-1,-1,10,65,-9999,57763.95659329167,-0.2002716064453125,-1.010604858398438,0.0356903076171875,57763.93022529167,0.2086749166903578,-0.08864384951550545,0.4002624591945492,57763.91635829167,2.188609989569776,-2.553076513582536,1.466281359833115,0.191526934504509,0.0109432702884078,0.2855025231838226,-0.03238871693611145,-0.02326375246047974,-0.04935801029205322,XArbitraryCorrectedZVertical,0.7209451198577881,-0.1537024527788162,-0.1022401452064514,0.6679524779319763,-0.05791280046105385,-0.9945432543754578,0.086772620677948,-1.289134979248047,-64.68145751953125,-4.741710662841797,2
2017-12-04 17:02:39.770 -0800,65,BF2B89E4-20AD-4334-A98B-17808832B17C,1512435753.438332,49.277192956445,-122.9073890059268,343.3391,-1,-1,10,65,-9999,57763.98676929167,-0.2373046875,-0.9852294921875,0.0361480712890625,57763.96040129167,0.01421568758273397,-0.3692483504039224,0.4998300628693417,57763.95159329167,2.09779465103137,-2.466293760256941,1.452247479777491,0.1462488919496536,-0.2232267260551453,0.5192463397979736,-0.1044564992189407,-0.01951563358306885,-0.05677413940429688,XArbitraryCorrectedZVertical,0.7212613224983215,-0.1610528975725174,-0.09758823364973068,0.6665736436843872,-0.07393399626016617,-0.9929813146591187,0.09231185913085938,-2.174962997436523,-64.64743041992188,-4.402984619140625,2
2017-12-04 17:02:39.790 -0800,66,BF2B89E4-20AD-4334-A98B-17808832B17C,1512435753.438332,49.277192956445,-122.9073890059268,343.3391,-1,-1,10,65,-9999,57764.01694429167,-0.0868072509765625,-1.031570434570312,-0.09954833984375,57763.99057729167,-0.246325356601353,-0.5552547062116348,-0.009522132477578316,57763.98676929167,2.009349693691877,-2.392691715339515,1.444699216243325,-0.1812093406915665,-0.4962327778339386,0.1391840428113937,-0.1525092273950577,-0.001881957054138184,-0.04546272754669189,XArbitraryCorrectedZVertical,0.7190333604812622,-0.1704273521900177,-0.09844345599412918,0.6665235757827759,-0.08561943471431732,-0.9920603036880493,0.09210891276597977,-2.918857574462891,-64.37625885009766,-3.748237609863281,2
2017-12-04 17:02:39.821 -0800,67,BF2B89E4-20AD-4334-A98B-17808832B17C,1512435753.438332,49.277192956445,-122.9073890059268,343.3391,-1,-1,10,65,-9999,57764.04712029167,-0.0702667236328125,-1.075424194335938,-0.13775634765625,57764.02075329167,-0.3565139130194905,0.2261977177147522,0.5099812339963967,57764.02200329167,1.899073533745945,-2.292369659903782,1.450806478579102,-0.3533338904380798,0.1314471065998077,0.3755201101303101,0.03027898073196411,-0.05487382411956787,-0.2010008096694946,XArbitraryCorrectedZVertical,0.7134776711463928,-0.1745952963829041,-0.1012203097343445,0.6709843277931213,-0.08986455202102661,-0.9928098320960999,0.07906781136989594,-3.410236358642578,-63.91953277587891,-4.608448028564453,2
2017-12-04 17:02:39.851 -0800,68,BF2B89E4-20AD-4334-A98B-17808832B17C,1512435753.438332,49.277192956445,-122.9073890059268,343.3391,-1,-1,10,65,-9999,57764.07729629167,-0.3426513671875,-1.132354736328125,0.055633544921875,57764.05092929167,-0.2523446332971501,0.09196587665927031,1.492983287116634,57764.05717929167,1.647806138281933,-2.032724150206626,1.421349116503541,-0.2467861473560333,0.05755451321601868,1.502987265586853,0.02921789884567261,-0.09990686178207397,-0.1843665838241577,XArbitraryCorrectedZVertical,0.7061676383018494,-0.1857547909021378,-0.08399100601673126,0.6780614256858826,-0.1332828551530838,-0.9888535141944885,0.0663551539182663,-5.320348739624023,-63.47850036621094,-5.494014739990234,2
2017-12-04 17:02:39.881 -0800,69,BF2B89E4-20AD-4334-A98B-17808832B17C,1512435759.838053,49.27719469936937,-122.9073998927614,343.4335,-1,-1,10,65,-9999,57764.10747229167,-0.1664886474609375,-1.07635498046875,-0.0254058837890625,57764.08110529167,-0.09693799841444824,0.03794684974032105,0.4944776417105004,57764.09241329167,1.531222575100772,-1.918020842926341,1.393143056128125,-0.00659916689619422,0.09718801826238632,0.337561160326004,-0.1402411162853241,-0.08571571111679077,-0.072967529296875,XArbitraryCorrectedZVertical,0.7007991075515747,-0.1973526030778885,-0.07338149100542068,0.6815769672393799,-0.1661706119775772,-0.9842610955238342,0.0601348765194416,-7.814072608947754,-62.48766326904297,-5.693641662597656,2
2017-12-04 17:02:39.929 -0800,70,BF2B89E4-20AD-4334-A98B-17808832B17C,1512435759.838053,49.27719469936937,-122.9073998927614,343.4335,-1,-1,10,65,-9999,57764.13764829167,-0.1086883544921875,-1.020858764648438,0.07061767578125,57764.11128029167,0.3756567149349801,0.4628312984770888,0.9729462231602075,57764.12758929167,1.52840270966465,-1.901153642248361,1.360187228559591,0.459146112203598,0.7609997391700745,1.773446321487427,0.1385747790336609,-0.1044632196426392,0.009000062942504883,XArbitraryCorrectedZVertical,0.7016765475273132,-0.2038537859916687,-0.05674590915441513,0.6803476810455322,-0.1977483481168747,-0.9779037833213806,0.06781268864870071,-9.202019691467285,-62.43079376220703,-5.793003082275391,2
2017-12-04 17:02:39.941 -0800,71,BF2B89E4-20AD-4334-A98B-17808832B17C,1512435759.838053,49.27719469936937,-122.9073998927614,343.4335,-1,-1,10,65,-9999,57764.16782429167,-0.0445404052734375,-0.7796478271484375,-0.0149688720703125,57764.14145629167,0.3158841947970236,0.6539216288057624,2.868749935698412,57764.12758929167,1.52840270966465,-1.901153642248361,1.360187228559591,0.459146112203598,0.7609997391700745,1.773446321487427,0.1385747790336609,-0.1044632196426392,0.009000062942504883,XArbitraryCorrectedZVertical,0.7016765475273132,-0.2038537859916687,-0.05674590915441513,0.6803476810455322,-0.1977483481168747,-0.9779037833213806,0.06781268864870071,-9.202019691467285,-62.43079376220703,-5.793003082275391,2
2017-12-04 17:02:39.972 -0800,72,BF2B89E4-20AD-4334-A98B-17808832B17C,1512435759.838053,49.27719469936937,-122.9073998927614,343.4335,-1,-1,10,65,-9999,57764.19799929167,-0.397308349609375,-0.833770751953125,-0.0591888427734375,57764.17163229167,0.2031342100424479,1.160068177148554,2.650773396268735,57764.16282429167,1.46280620536987,-1.814073527855997,1.262180226063907,0.1963190138339996,0.5872065424919128,3.151745796203613,0.3249465823173523,0.1641653180122375,-0.1234438419342041,XArbitraryCorrectedZVertical,0.6953020691871643,-0.2305169850587845,-0.01365534588694572,0.6806101202964783,-0.2947952151298523,-0.9527548551559448,0.07316609472036362,-15.1075439453125,-60.06309509277344,-5.492267608642578,2
2017-12-04 17:02:40.005 -0800,73,BF2B89E4-20AD-4334-A98B-17808832B17C,1512435759.838053,49.27719469936937,-122.9073998927614,343.4335,-1,-1,10,65,-9999,57764.22817529167,-0.800811767578125,-0.605926513671875,-0.1835479736328125,57764.20180829167,0.7749063739669722,1.304453586176072,2.305543829420128,57764.19799929167,1.438790420265974,-1.746320835055865,1.171075450032899,0.5739576816558838,1.513310194015503,2.389538526535034,0.04266545176506042,0.07902181148529053,-0.08216285705566406,XArbitraryCorrectedZVertical,0.6879090070724487,-0.2464947402477264,0.03420542553067207,0.6817998886108398,-0.3831806182861328,-0.921169638633728,0.06795691698789597,-19.51783752441406,-58.17631530761719,-5.986515045166016,2
2017-12-04 17:02:40.032 -0800,74,BF2B89E4-20AD-4334-A98B-17808832B17C,1512435759.838053,49.27719469936937,-122.9073998927614,343.4335,-1,-1,10,65,-9999,57764.25835129167,-0.5831298828125,-0.6415863037109375,0.059051513671875,57764.23198429167,0.7032391111362858,0.00818762245533961,0.3182115312736439,57764.23323429167,1.480036322529187,-1.752998110160226,1.107746650207144,0.7603392004966736,0.2757783532142639,0.6430120468139648,-0.4246081411838531,0.29096519947052,-0.2966188192367554,XArbitraryCorrectedZVertical,0.68925541639328,-0.2557242512702942,0.06844388693571091,0.6744233965873718,-0.4392834901809692,-0.894694447517395,0.08093584328889847,-23.16679573059082,-56.05192565917969,-5.40545654296875,2
2017-12-04 17:02:40.062 -0800,75,BF2B89E4-20AD-4334-A98B-17808832B17C,1512435759.838053,49.27719469936937,-122.9073998927614,343.4335,-1,-1,10,65,-9999,57764.28852729167,-0.2217254638671875,-0.8543243408203125,0.06256103515625,57764.26216029167,-0.3278796049789586,-0.8403599493422856,-1.303998984577995,57764.26841029167,1.509616978578266,-1.804130450287883,1.132653534404145,-0.3651474118232727,-0.8188737630844116,-1.276859283447266,-0.126043289899826,0.2276541590690613,0.007325172424316406,XArbitraryCorrectedZVertical,0.6959481239318848,-0.2543719410896301,0.05183068662881851,0.6695252656936646,-0.4127598106861115,-0.9055411815643311,0.09809774905443192,-22.34681701660156,-56.66726684570312,-4.430194854736328,2
2017-12-04 17:02:40.092 -0800,76,BF2B89E4-20AD-4334-A98B-17808832B17C,1512435759.838053,49.27719469936937,-122.9073998927614,343.4335,-1,-1,10,65,-9999,57764.31870329167,-0.3088836669921875,-1.065475463867188,0.1187286376953125,57764.29233529167,-0.7234421174817359,-0.8506163153323988,-0.3587706757272237,57764.30364429167,1.465814491048301,-1.792695719075655,1.160025686422028,-0.6521774530410767,-0.7849667072296143,-0.2529959678649902,0.1695687770843506,-0.08059263229370117,-0.003135085105895996,XArbitraryCorrectedZVertical,0.6914454102516174,-0.2566016912460327,0.03132587671279907,0.6745940446853638,-0.3895242214202881,-0.9168133735656738,0.08788236975669861,-20.84543800354004,-57.68497467041016,-4.893444061279297,2
2017-12-04 17:02:40.122 -0800,77,BF2B89E4-20AD-4334-A98B-17808832B17C,1512435759.838053,49.27719469936937,-122.9073998927614,343.4335,-1,-1,10,65,-9999,57764.34887929167,-0.29217529296875,-1.050994873046875,0.07147216796875,57764.32251129167,-0.03700169386945193,-0.1218177819501865,-0.3670243445775973,57764.33882029167,1.460847664526291,-1.797543557013115,1.171151248421624,0.4369286596775055,0.1238928884267807,-0.3206790089607239,0.04699283838272095,-0.1005751490592957,0.0244673490524292,XArbitraryCorrectedZVertical,0.6914312839508057,-0.2562388479709625,0.02399692125618458,0.6750468611717224,-0.3791308999061584,-0.9211991429328918,0.0874711349606514,-20.4069709777832,-57.96383666992188,-5.066890716552734,2
2017-12-04 17:02:40.169 -0800,78,BF2B89E4-20AD-4334-A98B-17808832B17C,1512435759.838053,49.27719469936937,-122.9073998927614,343.4335,-1,-1,10,65,-9999,57764.37905429167,-0.3558502197265625,-0.928741455078125,0.1539459228515625,57764.35268729167,1.126743243480065,0.215907795894904,-0.03513721479028745,57764.33882029167,1.460847664526291,-1.797543557013115,1.171151248421624,0.4369286596775055,0.1238928884267807,-0.3206790089607239,0.04699283838272095,-0.1005751490592957,0.0244673490524292,XArbitraryCorrectedZVertical,0.6914312839508057,-0.2562388479709625,0.02399692125618458,0.6750468611717224,-0.3791308999061584,-0.9211991429328918,0.0874711349606514,-20.4069709777832,-57.96383666992188,-5.066890716552734,2
2017-12-04 17:02:40.183 -0800,79,BF2B89E4-20AD-4334-A98B-17808832B17C,1512435759.838053,49.27719469936937,-122.9073998927614,343.4335,-1,-1,10,65,-9999,57764.40923029167,-0.46429443359375,-0.9703216552734375,0.24560546875,57764.38286329167,1.302153946574789,0.1516009776849787,-0.1418410249220562,57764.37405429167,1.557656626957794,-1.879833937826635,1.163210948529909,1.397416949272156,0.1371261030435562,-0.01871497370302677,0.0528014600276947,-0.05129492282867432,0.006805181503295898,XArbitraryCorrectedZVertical,0.7046041488647461,-0.2526123225688934,0.03047656267881393,0.6624131798744202,-0.3776153028011322,-0.9180806279182434,0.1205599829554558,-20.12342643737793,-58.22684478759766,-2.076107025146484,2
2017-12-04 17:02:40.213 -0800,80,BF2B89E4-20AD-4334-A98B-17808832B17C,1512435759.838053,49.27719469936937,-122.9073998927614,343.4335,-1,-1,10,65,-9999,57764.43940629167,-0.566314697265625,-0.9281005859375,0.24188232421875,57764.41303929167,0.7505648152875389,0.4005319710968652,0.05918609206592099,57764.40923029167,1.658370743114524,-1.964048628426879,1.15329790789651,0.8959428668022156,0.3467790186405182,-0.08361334353685379,-0.09141817688941956,-0.02304291725158691,0.09199965000152588,XArbitraryCorrectedZVertical,0.7185835838317871,-0.247639924287796,0.03700766712427139,0.6488008499145508,-0.3745241761207581,-0.9141061305999756,0.1553757935762405,-19.85615921020508,-58.54634857177734,-0.9738655090332031,2
2017-12-04 17:02:40.251 -0800,81,BF2B89E4-20AD-4334-A98B-17808832B17C,1512435759.838053,49.27719469936937,-122.9073998927614,343.4335,-1,-1,10,65,-9999,57764.46958229167,-0.44140625,-0.89959716796875,0.027740478515625,57764.44321529167,0.163476811933969,0.4868711210050161,0.1699024870121122,57764.44446529167,1.696435503538806,-1.98261990089847,1.141950348347704,0.2557812035083771,0.5306517481803894,0.1909821629524231,-0.1924761533737183,-0.01148277521133423,0.06412994861602783,XArbitraryCorrectedZVertical,0.7238008975982666,-0.2435879111289978,0.04653328284621239,0.6439036726951599,-0.3810559511184692,-0.9094462394714355,0.1664456129074097,-19.99302673339844,-58.25538635253906,-0.31292724609375,2
2017-12-04 17:02:40.273 -0800,82,BF2B89E4-20AD-4334-A98B-17808832B17C,1512435759.838053,49.27719469936937,-122.9073998927614,343.4335,-1,-1,10,65,-9999,57764.499759625,-0.3184356689453125,-0.8543243408203125,-0.1349334716796875,57764.473391625,-0.3855956321231558,-0.250022356826601,-0.506364128603851,57764.479641625,1.689436668650245,-1.974647500482699,1.14837995831461,-0.3888337016105652,-0.254788875579834,-0.5189428329467773,-0.04665935039520264,0.01288527250289917,-0.1490315198898315,XArbitraryCorrectedZVertical,0.7226631641387939,-0.2414715886116028,0.04494630172848701,0.646087646484375,-0.3769856989383698,-0.9121009707450867,0.1611011475324631,-19.6168270111084,-58.61405944824219,-0.6956672668457031,2
2017-12-04 17:02:40.304 -0800,83,BF2B89E4-20AD-4334-A98B-17808832B17C,1512435759.838053,49.27719469936937,-122.9073998927614,343.4335,-1,-1,10,65,-9999,57764.529934625,-0.47137451171875,-0.90142822265625,-0.0792999267578125,57764.503567625,-0.0567261301670148,-0.3854398371993862,-0.4066335394703458,57764.51487662501,1.691146994088349,-1.988831831516858,1.166301819472522,0.1001608744263649,-0.4348741471767426,-0.3469082713127136,-0.001480996608734131,0.05884313583374023,-0.3143408298492432,XArbitraryCorrectedZVertical,0.7228108048439026,-0.239643931388855,0.03419991582632065,0.6472600102424622,-0.3596639931201935,-0.919301450252533,0.1597693413496017,-18.69944953918457,-59.16976928710938,-0.6783218383789062,2
2017-12-04 17:02:40.333 -0800,84,BF2B89E4-20AD-4334-A98B-17808832B17C,1512435759.838053,49.27719469936937,-122.9073998927614,343.4335,-1,-1,10,65,-9999,57764.560110625,-0.326416015625,-0.9876861572265625,0.1694793701171875,57764.533743625,0.5243649670439147,-0.5859763999145708,-0.5983425221202447,57764.550052625,1.74876439561813,-2.062260209057695,1.175644925346037,0.6249683499336243,-0.7244561910629272,-0.6516267061233521,-0.111297219991684,-0.03525263071060181,-0.1621168851852417,XArbitraryCorrectedZVertical,0.7304458022117615,-0.2393336594104767,0.02286028303205967,0.6392539739608765,-0.339386373758316,-0.9229382872581482,0.1816633343696594,-17.66519927978516,-59.673583984375,0.7227287292480469,2
2017-12-04 17:02:40.364 -0800,85,BF2B89E4-20AD-4334-A98B-17808832B17C,1512435759.838053,49.27719469936937,-122.9073998927614,343.4335,-1,-1,10,65,-9999,57764.590286625,-0.4073486328125,-0.9387054443359375,0.425384521484375,57764.563919625,0.520375818047085,-0.5663824585104218,-0.2725295301471877,57764.550052625,1.74876439561813,-2.062260209057695,1.175644925346037,0.6249683499336243,-0.7244561910629272,-0.6516267061233521,-0.111297219991684,-0.03525263071060181,-0.1621168851852417,XArbitraryCorrectedZVertical,0.7304458022117615,-0.2393336594104767,0.02286028303205967,0.6392539739608765,-0.339386373758316,-0.9229382872581482,0.1816633343696594,-17.66519927978516,-59.673583984375,0.7227287292480469,2
2017-12-04 17:02:40.410 -0800,86,BF2B89E4-20AD-4334-A98B-17808832B17C,1512435759.838053,49.27719469936937,-122.9073998927614,343.4335,-1,-1,10,65,-9999,57764.620462625,-0.3602447509765625,-0.9864044189453125,0.2208251953125,57764.59409562501,-0.01556271446209604,-0.01544793221911363,0.06445089522489864,57764.58528662501,1.795159339437251,-2.122474391119939,1.175797060636228,0.1053717359900475,-0.1549888700246811,0.03787262737751007,-0.04164969921112061,-0.0125347375869751,0.2901982069015503,XArbitraryCorrectedZVertical,0.7365920543670654,-0.2414005398750305,0.0154648469761014,0.6316001415252686,-0.3277198076248169,-0.9229968190193176,0.2016841471195221,-17.1824951171875,-59.91902160644531,2.176677703857422,2
2017-12-04 17:02:40.424 -0800,87,BF2B89E4-20AD-4334-A98B-17808832B17C,1512435759.838053,49.27719469936937,-122.9073998927614,343.4335,-1,-1,10,65,-9999,57764.650638625,-0.3816070556640625,-0.882537841796875,0.1559600830078125,57764.62427062501,0.1443611742615983,0.3980445786387312,-0.191976097707234,57764.620462625,1.795372567173756,-2.121075588977569,1.173863780308036,0.08895769715309143,0.1931685656309128,-0.03308680653572083,-0.05646401643753052,-0.05260235071182251,0.02390050888061523,XArbitraryCorrectedZVertical,0.7367272973060608,-0.2414790391921997,0.01668976433575153,0.6313812732696533,-0.3295222818851471,-0.9222511649131775,0.2021584808826447,-17.37723541259766,-59.81847381591797,1.978740692138672,2
2017-12-04 17:02:40.454 -0800,88,BF2B89E4-20AD-4334-A98B-17808832B17C,1512435759.838053,49.27719469936937,-122.9073998927614,343.4335,-1,-1,10,65,-9999,57764.680813625,-0.3188323974609375,-0.873260498046875,0.0936737060546875,57764.65444662501,0.4261830060842904,0.9260258521268645,-0.3701058882749279,57764.65569662501,1.829907535356744,-2.128883805254163,1.178836993118629,0.3822531700134277,0.9497243165969849,-0.4040414392948151,-0.04296603798866272,0.03961038589477539,-0.06295013427734375,XArbitraryCorrectedZVertical,0.7405446171760559,-0.2296527177095413,0.02306297048926353,0.6311269402503967,-0.3240383565425873,-0.9241623878479004,0.2022933959960938,-16.71898651123047,-60.2957763671875,1.922290802001953,2
2017-12-04 17:02:40.490 -0800,89,BF2B89E4-20AD-4334-A98B-17808832B17C,1512435759.838053,49.27719469936937,-122.9073998927614,343.4335,-1,-1,10,65,-9999,57764.710989625,-0.3100738525390625,-0.9735260009765625,0.147918701171875,57764.68462262501,0.4726250733858552,0.7019314990410569,-0.06180238152081483,57764.690872625,1.87798503166018,-2.146063902104747,1.174627876330605,0.4694873988628387,0.6982488632202148,-0.04866239801049232,0.005371272563934326,0.03837579488754272,-0.1010581254959106,XArbitraryCorrectedZVertical,0.7464860677719116,-0.2184742540121078,0.03317670151591301,0.6276358366012573,-0.3237764239311218,-0.9225463271141052,0.2099449038505554,-16.60061645507812,-60.16712188720703,2.002532958984375,2
2017-12-04 17:02:40.515 -0800,90,BF2B89E4-20AD-4334-A98B-17808832B17C,1512435759.838053,49.27719469936937,-122.9073998927614,343.4335,-1,-1,10,65,-9999,57764.741165625,-0.225494384765625,-1.08526611328125,0.2921295166015625,57764.71479862501,0.4918557596173174,0.4834484263720463,-0.123211946780843,57764.72610762501,1.917074190986271,-2.162033744483356,1.167344431858559,0.5313268303871155,0.6007077097892761,-0.1546982973814011,0.04403185844421387,-0.09473884105682373,-0.02705609798431396,XArbitraryCorrectedZVertical,0.7515848278999329,-0.2110319584608078,0.04175570607185364,0.6235722303390503,-0.3259532451629639,-0.9197112917900085,0.218828484416008,-16.35871887207031,-60.00527954101562,2.753208160400391,2
2017-12-04 17:02:40.570 -0800,91,BF2B89E4-20AD-4334-A98B-17808832B17C,1512435759.838053,49.27719469936937,-122.9073998927614,343.4335,-1,-1,10,65,-9999,57764.771341625,-0.2053680419921875,-0.77032470703125,0.1449737548828125,57764.74497462501,0.8706267751310361,0.5371745055710868,-0.2409905123057063,57764.761282625,1.97615895063353,-2.200174555782014,1.156019677935566,0.6246052384376526,0.7558452486991882,-0.236139714717865,-0.1430249810218811,-0.06582695245742798,0.356383204460144,XArbitraryCorrectedZVertical,0.7596305012702942,-0.2038837671279907,0.04919900000095367,0.6156072616577148,-0.325770765542984,-0.9152063727378845,0.2372141778469086,-16.18262672424316,-60.04827117919922,3.684970855712891,2
2017-12-04 17:02:40.575 -0800,92,BF2B89E4-20AD-4334-A98B-17808832B17C,1512435759.838053,49.27719469936937,-122.9073998927614,343.4335,-1,-1,10,65,-9999,57764.801517625,-0.48443603515625,-0.7636260986328125,0.056121826171875,57764.77515062501,0.3758476635851388,1.027764997354508,0.1753542440796134,57764.761282625,1.97615895063353,-2.200174555782014,1.156019677935566,0.6246052384376526,0.7558452486991882,-0.236139714717865,-0.1430249810218811,-0.06582695245742798,0.356383204460144,XArbitraryCorrectedZVertical,0.7596305012702942,-0.2038837671279907,0.04919900000095367,0.6156072616577148,-0.325770765542984,-0.9152063727378845,0.2372141778469086,-16.18262672424316,-60.04827117919922,3.684970855712891,2
2017-12-04 17:02:40.605 -0800,93,BF2B89E4-20AD-4334-A98B-17808832B17C,1512435759.838053,49.27719469936937,-122.9073998927614,343.4335,-1,-1,10,65,-9999,57764.831693625,-0.37255859375,-1.0443115234375,0.20916748046875,57764.80532562501,-0.2607559612840564,0.05973417061825929,0.03959454750675307,57764.796517625,1.99239413732137,-2.18437780491341,1.145558411366843,0.00904339924454689,0.5443036556243896,0.2071064859628677,-0.09179040789604187,0.1955780982971191,-0.2088520526885986,XArbitraryCorrectedZVertical,0.7618310451507568,-0.1959152519702911,0.06342294812202454,0.6141726970672607,-0.3372867405414581,-0.9109405875205994,0.2375386506319046,-16.58436584472656,-59.93077850341797,3.436588287353516,2
2017-12-04 17:02:40.650 -0800,94,BF2B89E4-20AD-4334-A98B-17808832B17C,1512435759.838053,49.27719469936937,-122.9073998927614,343.4335,-1,-1,10,65,-9999,57764.861868625,-0.238311767578125,-0.9448699951171875,0.1402587890625,57764.83550162501,-0.2073670382790199,0.04032984628372395,-0.4161588677412322,57764.831693625,1.976437095546868,-2.169382472486153,1.152975633602812,-0.3143478631973267,-0.1327857673168182,-0.3311106860637665,-0.0881507396697998,-0.07683879137039185,-0.02427995204925537,XArbitraryCorrectedZVertical,0.7590954899787903,-0.1951781809329987,0.06191853061318398,0.6179365515708923,-0.3352196216583252,-0.9139754176139832,0.2286409735679626,-16.56253623962402,-59.90537261962891,2.893508911132812,2
2017-12-04 17:02:40.666 -0800,95,BF2B89E4-20AD-4334-A98B-17808832B17C,1512435759.838053,49.27719469936937,-122.9073998927614,343.4335,-1,-1,10,65,-9999,57764.892044625,-0.471954345703125,-0.8585205078125,0.080902099609375,57764.86567762501,0.4392378217478589,0.8928588439110177,0.1230556192248553,57764.866927625,1.991333006561125,-2.169702461148708,1.159078657252485,0.3745010793209076,0.823164165019989,0.05742310360074043,0.069623202085495,-0.01044511795043945,-0.09417557716369629,XArbitraryCorrectedZVertical,0.7599509954452515,-0.1878144443035126,0.06451484560966492,0.6189007163047791,-0.3305332362651825,-0.9164347648620605,0.2255995571613312,-16.11405372619629,-60.12897491455078,2.528945922851562,2
2017-12-04 17:02:40.696 -0800,96,BF2B89E4-20AD-4334-A98B-17808832B17C,1512435759.838053,49.27719469936937,-122.9073998927614,343.4335,-1,-1,10,65,-9999,57764.92222062501,-0.3330841064453125,-0.927276611328125,0.165130615234375,57764.89585362501,0.5156316628812179,0.6316256441596191,0.1783835898195785,57764.90210362501,2.018412622651613,-2.164790683874743,1.141602471640754,0.5104132890701294,0.6059852838516235,0.168039932847023,-0.1481225192546844,0.03831452131271362,-0.1570813655853271,XArbitraryCorrectedZVertical,0.7639636993408203,-0.1811370104551315,0.08009651303291321,0.6141119003295898,-0.3448584377765656,-0.9093015193939209,0.2329023033380508,-16.51304817199707,-59.99794769287109,3.137336730957031,2
2017-12-04 17:02:40.731 -0800,97,BF2B89E4-20AD-4334-A98B-17808832B17C,1512435759.838053,49.27719469936937,-122.9073998927614,343.4335,-1,-1,10,65,-9999,57764.95239662501,-0.2801971435546875,-0.952484130859375,0.2744903564453125,57764.92602962501,0.1589124201416822,0.2124020106359237,-0.06268601837050312,57764.937337625,2.039398155830971,-2.172692446471585,1.136510797191829,0.06045008450746536,0.1447854042053223,-0.05848761647939682,0.07376259565353394,-0.009653449058532715,0.01690423488616943,XArbitraryCorrectedZVertical,0.7666702270507812,-0.1770191639661789,0.08504736423492432,0.6112673282623291,-0.3468186259269714,-0.9071708917617798,0.2382380366325378,-16.55824279785156,-59.99369049072266,3.340126037597656,2
2017-12-04 17:02:40.756 -0800,98,BF2B89E4-20AD-4334-A98B-17808832B17C,1512435759.838053,49.27719469936937,-122.9073998927614,343.4335,-1,-1,10,65,-9999,57764.98257262501,-0.3814544677734375,-0.9615478515625,0.256622314453125,57764.95620462501,-0.245149304663974,-0.1378564032990797,-0.08833998283512742,57764.97251362501,2.023428524880896,-2.160102443590157,1.144268683242907,-0.3229148089885712,-0.2812035083770752,-0.08501525223255157,0.05509525537490845,-0.05944085121154785,0.02526915073394775,XArbitraryCorrectedZVertical,0.7639631628990173,-0.1769952178001404,0.08261512964963913,0.6149856448173523,-0.3439288735389709,-0.9104077816009521,0.22993403673172,-16.50277328491211,-60.02376556396484,3.010231018066406,2
2017-12-04 17:02:40.809 -0800,99,BF2B89E4-20AD-4334-A98B-17808832B17C,1512435759.838053,49.27719469936937,-122.9073998927614,343.4335,-1,-1,10,65,-9999,57765.01274762501,-0.30926513671875,-0.99432373046875,0.357879638671875,57764.98638062501,-0.2478305752494658,-0.4672883648774455,-0.2178159508159458,57764.97251362501,2.023428524880896,-2.160102443590157,1.144268683242907,-0.3229148089885712,-0.2812035083770752,-0.08501525223255157,0.05509525537490845,-0.05944085121154785,0.02526915073394775,XArbitraryCorrectedZVertical,0.7639631628990173,-0.1769952178001404,0.08261512964963913,0.6149856448173523,-0.3439288735389709,-0.9104077816009521,0.22993403673172,-16.50277328491211,-60.02376556396484,3.010231018066406,2
2017-12-04 17:02:40.817 -0800,100,BF2B89E4-20AD-4334-A98B-17808832B17C,1512435759.838053,49.27719469936937,-122.9073998927614,343.4335,-1,-1,10,65,-9999,57765.04292362501,-0.2542266845703125,-0.9982147216796875,0.3113555908203125,57765.01655662501,-0.1582093456139013,-0.08492980505928095,-0.06966483200705577,57765.007747625,1.999941958417422,-2.1490319088995,1.153939299156181,-0.251562625169754,-0.1799470186233521,-0.1522106677293777,0.03477340936660767,-0.03416609764099121,0.1347737312316895,XArbitraryCorrectedZVertical,0.7605029344558716,-0.1796672940254211,0.07662196457386017,0.6192605495452881,-0.3390641808509827,-0.9143660068511963,0.2212900966405869,-15.96884346008301,-60.25933074951172,2.763080596923828,2
2017-12-04 17:02:40.847 -0800,101,BF2B89E4-20AD-4334-A98B-17808832B17C,1512435759.838053,49.27719469936937,-122.9073998927614,343.4335,-1,-1,10,65,-9999,57765.07309962501,-0.432586669921875,-0.779266357421875,0.0897979736328125,57765.046732625,0.1246655001038082,0.9063163295314061,0.1888133275966558,57765.04292362501,1.992679241470887,-2.133292291584499,1.156141108143465,0.02622255124151707,0.8189412355422974,0.1695041805505753,0.1386382877826691,-0.1407750248908997,0.2125003337860107,XArbitraryCorrectedZVertical,0.7590370774269104,-0.1768868565559387,0.07966787368059158,0.6214714050292969,-0.3408019840717316,-0.9152553081512451,0.2148524969816208,-16.0362434387207,-60.31633758544922,2.287235260009766,2
2017-12-04 17:02:40.889 -0800,102,BF2B89E4-20AD-4334-A98B-17808832B17C,1512435759.838053,49.27719469936937,-122.9073998927614,343.4335,-1,-1,10,65,-9999,57765.10327562501,-0.50860595703125,-0.7997283935546875,-0.0710906982421875,57765.076907625,-0.3738447001292902,0.21960532875237,0.4296935850332328,57765.078157625,1.978066075195029,-2.095257044107087,1.148215391127728,-0.3342744112014771,0.3522227108478546,0.4399580657482147,-0.1022061407566071,0.1313480734825134,-0.1343337297439575,XArbitraryCorrectedZVertical,0.7568086981773376,-0.1729806959629059,0.09200341999530792,0.6235810518264771,-0.3549929559230804,-0.9120334982872009,0.2053634524345398,-16.66444778442383,-59.79638671875,1.196392059326172,2
2017-12-04 17:02:40.907 -0800,103,BF2B89E4-20AD-4334-A98B-17808832B17C,1512435759.838053,49.27719469936937,-122.9073998927614,343.4335,-1,-1,10,65,-9999,57765.13345162501,-0.2490997314453125,-0.884674072265625,0.1937713623046875,57765.107083625,-0.06638461649240517,-0.3252129817794622,-0.1002475087010897,57765.11333362501,1.956033246059087,-2.077398018201349,1.148259125014655,-0.05138571187853813,-0.3453195691108704,-0.09784933924674988,-0.09415939450263977,0.09663701057434082,-0.2477542161941528,XArbitraryCorrectedZVertical,0.7540636658668518,-0.1757097691297531,0.09185153990983963,0.6261605620384216,-0.3585688769817352,-0.9120514392852783,0.1989718675613403,-16.68151473999023,-60.06431579589844,0.9129638671875,2
2017-12-04 17:02:40.937 -0800,104,BF2B89E4-20AD-4334-A98B-17808832B17C,1512435759.838053,49.27719469936937,-122.9073998927614,343.4335,-1,-1,10,65,-9999,57765.16362662501,-0.3550262451171875,-0.8051300048828125,0.1288604736328125,57765.137259625,-0.05145227226033088,-0.1856787869936326,-0.1244468545783127,57765.148568625,1.957973891575031,-2.087449815959358,1.152964883431885,-0.0792844295501709,-0.1619557291269302,-0.1262993961572647,0.03642374277114868,0.05787670612335205,-0.09408974647521973,XArbitraryCorrectedZVertical,0.7543246150016785,-0.1766808480024338,0.08718084543943405,0.626240611076355,-0.3528147637844086,-0.9139710664749146,0.2004434913396835,-16.36503410339355,-59.84820556640625,1.043315887451172,2
2017-12-04 17:02:40.970 -0800,105,BF2B89E4-20AD-4334-A98B-17808832B17C,1512435759.838053,49.27719469936937,-122.9073998927614,343.4335,-1,-1,10,65,-9999,57765.19380262501,-0.3431243896484375,-0.951263427734375,0.2023468017578125,57765.167435625,-0.3932823139774515,-0.329274835074051,-0.200513925845919,57765.18374362501,1.941717495551857,-2.082091727018883,1.164048856390579,-0.4161612689495087,-0.4087828695774078,-0.196626678109169,-0.01225751638412476,0.06540036201477051,-0.05715227127075195,XArbitraryCorrectedZVertical,0.751803457736969,-0.177713543176651,0.08057950437068939,0.6298538446426392,-0.3450270295143127,-0.918412446975708,0.1935810893774033,-16.10112190246582,-60.25114440917969,0.8643226623535156,2
2017-12-04 17:02:40.997 -0800,106,BF2B89E4-20AD-4334-A98B-17808832B17C,1512435759.838053,49.27719469936937,-122.9073998927614,343.4335,-1,-1,10,65,-9999,57765.22397862501,-0.3224029541015625,-0.9291229248046875,0.2481231689453125,57765.197611625,-0.3065245151459401,-0.2104786756966685,-0.1263544768671365,57765.18374362501,1.941717495551857,-2.082091727018883,1.164048856390579,-0.4161612689495087,-0.4087828695774078,-0.196626678109169,-0.01225751638412476,0.06540036201477051,-0.05715227127075195,XArbitraryCorrectedZVertical,0.751803457736969,-0.177713543176651,0.08057950437068939,0.6298538446426392,-0.3450270295143127,-0.918412446975708,0.1935810893774033,-16.10112190246582,-60.25114440917969,0.8643226623535156,2
2017-12-04 17:02:41.054 -0800,107,BF2B89E4-20AD-4334-A98B-17808832B17C,1512435759.838053,49.27719469936937,-122.9073998927614,343.4335,-1,-1,10,65,-9999,57765.25415462501,-0.593414306640625,-1.140899658203125,0.1763916015625,57765.227786625,-0.4080428843192157,0.2790449537540666,0.002990197271940968,57765.218978625,1.919871569196464,-2.067990136403164,1.173580096778927,-0.3835978507995605,0.09423654526472092,-0.02830858714878559,0.03055000305175781,0.0004037618637084961,0.07879245281219482,XArbitraryCorrectedZVertical,0.748594343662262,-0.1785024255514145,0.07591953873634338,0.6340183615684509,-0.3400135040283203,-0.9221414923667908,0.1845132112503052,-15.87052440643311,-60.23767852783203,0.077484130859375,2
2017-12-04 17:02:41.058 -0800,108,BF2B89E4-20AD-4334-A98B-17808832B17C,1512435759.838053,49.27719469936937,-122.9073998927614,343.4335,-1,-1,10,65,-9999,57765.28432962501,-0.38079833984375,-0.668609619140625,0.233306884765625,57765.257962625,-0.1126996510099732,-0.5968250529311176,0.3233801943172697,57765.25415462501,1.881721074792418,-2.01904376392015,1.17705915245695,-0.4926849901676178,0.7615468502044678,0.3340580761432648,-0.00615769624710083,-0.02801048755645752,0.007044315338134766,XArbitraryCorrectedZVertical,0.7430629134178162,-0.1760398000478745,0.08088847249746323,0.6405655145645142,-0.3457404971122742,-0.9234817624092102,0.1662650108337402,-15.91330909729004,-60.02584838867188,-0.7913932800292969,2
2017-12-04 17:02:41.088 -0800,109,BF2B89E4-20AD-4334-A98B-17808832B17C,1512435759.838053,49.27719469936937,-122.9073998927614,343.4335,-1,-1,10,65,-9999,57765.31450562501,-0.4567718505859375,-0.8458709716796875,-0.038299560546875,57765.288138625,0.1117656804156824,0.2090320465925374,-0.1471324596919347,57765.289388625,1.888057729878014,-2.031838352735215,1.176318895908012,0.1738124638795853,0.2615737915039062,-0.2224153727293015,-0.02283802628517151,0.1672618389129639,0.03449594974517822,XArbitraryCorrectedZVertical,0.7441784143447876,-0.1780110001564026,0.07839985936880112,0.639033317565918,-0.3441968858242035,-0.9231975078582764,0.1709788590669632,-16.14067268371582,-59.96516418457031,-0.560028076171875,2
2017-12-04 17:02:41.130 -0800,110,BF2B89E4-20AD-4334-A98B-17808832B17C,1512435759.838053,49.27719469936937,-122.9073998927614,343.4335,-1,-1,10,65,-9999,57765.34468162501,-0.3845062255859375,-1.065460205078125,0.11004638671875,57765.318314625,0.2524780576677631,-0.8835015611049152,-0.002031459279512443,57765.32456462501,1.893050640490514,-2.049946642721841,1.17412425316972,0.2994319498538971,-0.9134091138839722,-0.004031253047287464,-0.1372302770614624,0.06996536254882812,-0.2262585163116455,XArbitraryCorrectedZVertical,0.7454590201377869,-0.1826180964708328,0.07396238297224045,0.6367657780647278,-0.342841774225235,-0.9223518371582031,0.178117036819458,-16.19082450866699,-60.01737976074219,-0.380523681640625,2
2017-12-04 17:02:41.148 -0800,111,BF2B89E4-20AD-4334-A98B-17808832B17C,1512435759.838053,49.27719469936937,-122.9073998927614,343.4335,-1,-1,10,65,-9999,57765.374857625,-0.25225830078125,-1.032180786132812,0.4094696044921875,57765.348490625,1.480427281525238,-0.9308791968974248,-0.143813894657587,57765.359798625,1.983331735606787,-2.168757121960507,1.156959916857964,1.623595118522644,-0.6794043183326721,-0.09806099534034729,0.06027036905288696,-0.1635777354240417,0.0964357852935791,XArbitraryCorrectedZVertical,0.7593660950660706,-0.1911876946687698,0.06305279582738876,0.6187362670898438,-0.3323498368263245,-0.9155848622322083,0.2263792008161545,-15.96199131011963,-60.04370880126953,3.023456573486328,2
2017-12-04 17:02:41.178 -0800,112,BF2B89E4-20AD-4334-A98B-17808832B17C,1512435759.838053,49.27719469936937,-122.9073998927614,343.4335,-1,-1,10,65,-9999,57765.405033625,-0.2939910888671875,-0.8892669677734375,0.1883697509765625,57765.378665625,1.67726258295743,0.5049859427397351,0.0726001681605411,57765.394974625,2.09218642389511,-2.256075981921138,1.119499969468577,1.571130871772766,1.207198858261108,0.1992419064044952,0.09095287322998047,-0.04446870088577271,0.1148148775100708,XArbitraryCorrectedZVertical,0.7766337394714355,-0.186686709523201,0.07386347651481628,0.5971032977104187,-0.337672233581543,-0.8998824954032898,0.2760237753391266,-16.1920108795166,-59.58729553222656,5.699691772460938,2
2017-12-04 17:02:41.210 -0800,113,BF2B89E4-20AD-4334-A98B-17808832B17C,1512435759.838053,49.27719469936937,-122.9073998927614,343.4335,-1,-1,10,65,-9999,57765.435208625,-0.4459991455078125,-0.862396240234375,0.2266387939453125,57765.408841625,1.500272359020181,1.351242663367674,0.2545052558895314,57765.394974625,2.09218642389511,-2.256075981921138,1.119499969468577,1.571130871772766,1.207198858261108,0.1992419064044952,0.09095287322998047,-0.04446870088577271,0.1148148775100708,XArbitraryCorrectedZVertical,0.7766337394714355,-0.186686709523201,0.07386347651481628,0.5971032977104187,-0.337672233581543,-0.8998824954032898,0.2760237753391266,-16.1920108795166,-59.58729553222656,5.699691772460938,2
2017-12-04 17:02:41.239 -0800,114,BF2B89E4-20AD-4334-A98B-17808832B17C,1512435759.838053,49.27719469936937,-122.9073998927614,343.4335,-1,-1,10,65,-9999,57765.465384625,-0.3340606689453125,-0.828125,0.18011474609375,57765.439017625,0.7030353793128947,0.186365882554873,-0.1809378276210735,57765.430208625,2.168019786313431,-2.281391949576808,1.081084644025291,1.234215259552002,0.7594150900840759,0.06431268900632858,-0.08507534861564636,0.02053004503250122,-0.1062854528427124,XArbitraryCorrectedZVertical,0.7891838550567627,-0.1749203205108643,0.09718690812587738,0.5806431770324707,-0.3565292656421661,-0.8824685215950012,0.3068165481090546,-16.76517486572266,-59.16747283935547,7.579227447509766,2
2017-12-04 17:02:41.290 -0800,115,BF2B89E4-20AD-4334-A98B-17808832B17C,1512435759.838053,49.27719469936937,-122.9073998927614,343.4335,-1,-1,10,65,-9999,57765.49556004167,-0.31097412109375,-0.956268310546875,0.3957672119140625,57765.469193625,-0.1825652853632209,-0.517654600045242,-0.2029216897874596,57765.465384625,2.196358575940923,-2.305399073943246,1.076621075759924,-0.1947542726993561,-0.4181317985057831,-0.162268728017807,0.05391553044319153,0.09016859531402588,-0.05353426933288574,XArbitraryCorrectedZVertical,0.7933700084686279,-0.171830490231514,0.097105972468853,0.5758547186851501,-0.3519807159900665,-0.8803601861000061,0.317923367023468,-16.66604614257812,-59.06583404541016,8.011272430419922,2
2017-12-04 17:02:41.299 -0800,116,BF2B89E4-20AD-4334-A98B-17808832B17C,1512435759.838053,49.27719469936937,-122.9073998927614,343.4335,-1,-1,10,65,-9999,57765.52573604167,-0.2674407958984375,-0.9898223876953125,0.3803253173828125,57765.49936804167,-0.2055182718502869,-0.3013153720537451,-0.2636875690120156,57765.50061804167,2.196551024616156,-2.321774733521763,1.086774836816904,-0.201868399977684,-0.3500220477581024,-0.2268180102109909,0.021037757396698,-0.09021109342575073,0.104819655418396,XArbitraryCorrectedZVertical,0.7928102612495422,-0.1738277673721313,0.08791781216859818,0.5774999856948853,-0.3401753604412079,-0.8851307034492493,0.3175283968448639,-15.98046875,-59.17134094238281,8.061119079589844,2
2017-12-04 17:02:41.329 -0800,117,BF2B89E4-20AD-4334-A98B-17808832B17C,1512435759.838053,49.27719469936937,-122.9073998927614,343.4335,-1,-1,10,65,-9999,57765.55591104167,-0.40350341796875,-0.8597869873046875,0.14190673828125,57765.52954404167,-0.3277429848150375,-0.09079035735410933,-0.1781750643062253,57765.53579404167,2.196275108275837,-2.328159513019371,1.099972685889388,-0.3267058730125427,-0.07250136882066727,-0.1522742807865143,0.08800005912780762,-0.08298712968826294,0.04454553127288818,XArbitraryCorrectedZVertical,0.7912725806236267,-0.1723598837852478,0.08174142241477966,0.5809457302093506,-0.3296229839324951,-0.8911949992179871,0.3116404414176941,-15.38655757904053,-59.74736022949219,7.932785034179688,2
2017-12-04 17:02:41.370 -0800,118,BF2B89E4-20AD-4334-A98B-17808832B17C,1512435759.838053,49.27719469936937,-122.9073998927614,343.4335,-1,-1,10,65,-9999,57765.58608704167,-0.5387115478515625,-0.8550262451171875,0.0860595703125,57765.55972004167,-0.1824310620442809,0.07643432118192818,-0.01872761510154621,57765.57102904167,2.180553743313953,-2.310461404393457,1.106937457836615,-0.1243264600634575,0.09051786363124847,-0.07990727573633194,-0.1887170374393463,0.04463177919387817,-0.219688892364502,XArbitraryCorrectedZVertical,0.7882521152496338,-0.1715877205133438,0.08225151896476746,0.5851930975914001,-0.3304937779903412,-0.8943327069282532,0.3015674948692322,-15.22989273071289,-59.53440856933594,7.206947326660156,2
2017-12-04 17:02:41.390 -0800,119,BF2B89E4-20AD-4334-A98B-17808832B17C,1512435759.838053,49.27719469936937,-122.9073998927614,343.4335,-1,-1,10,65,-9999,57765.61626304167,-0.392333984375,-0.8911895751953125,0.3092193603515625,57765.58989604167,0.1699554839178048,0.132387335684493,-0.3261235165561603,57765.60620404167,2.201606889582786,-2.323704374370651,1.110962275824401,0.3280719220638275,0.3795039355754852,-0.2739914059638977,-0.1032363176345825,0.0154041051864624,-0.118746280670166,XArbitraryCorrectedZVertical,0.7900240421295166,-0.1660992056131363,0.08208736032247543,0.5844097137451172,-0.3238419592380524,-0.8961261510848999,0.3034538626670837,-14.64926433563232,-59.77914428710938,7.332782745361328,2
2017-12-04 17:02:41.420 -0800,120,BF2B89E4-20AD-4334-A98B-17808832B17C,1512435759.838053,49.27719469936937,-122.9073998927614,343.4335,-1,-1,10,65,-9999,57765.64643904167,-0.3541259765625,-0.943267822265625,0.272491455078125,57765.62007204167,0.4584836879975345,0.7832671018931668,-0.2517872336809965,57765.60620404167,2.201606889582786,-2.323704374370651,1.110962275824401,0.3280719220638275,0.3795039355754852,-0.2739914059638977,-0.1032363176345825,0.0154041051864624,-0.118746280670166,XArbitraryCorrectedZVertical,0.7900240421295166,-0.1660992056131363,0.08208736032247543,0.5844097137451172,-0.3238419592380524,-0.8961261510848999,0.3034538626670837,-14.64926433563232,-59.77914428710938,7.332782745361328,2
2017-12-04 17:02:41.450 -0800,121,BF2B89E4-20AD-4334-A98B-17808832B17C,1512435759.838053,49.27719469936937,-122.9073998927614,343.4335,-1,-1,10,65,-9999,57765.67661504167,-0.2327880859375,-0.9000244140625,0.30389404296875,57765.65024704167,0.4954214660008245,0.673401054283038,0.0003736415009381171,57765.64143904167,2.239023829985095,-2.330627324445235,1.105748257580388,0.4732610285282135,0.887206494808197,-0.1212331354618073,-0.04115605354309082,-0.02668642997741699,-0.005557656288146973,XArbitraryCorrectedZVertical,0.7940632700920105,-0.1546437740325928,0.0916355699300766,0.5806475281715393,-0.3251159191131592,-0.8938000202178955,0.3089023530483246,-14.43569183349609,-60.15686798095703,7.589633941650391,2
2017-12-04 17:02:41.480 -0800,122,BF2B89E4-20AD-4334-A98B-17808832B17C,1512435759.838053,49.27719469936937,-122.9073998927614,343.4335,-1,-1,10,65,-9999,57765.70679004167,-0.355712890625,-0.940216064453125,0.253326416015625,57765.68042304167,0.5254483409753589,0.7184446956962022,0.1222564045817225,57765.67661504167,2.266245569473281,-2.332473017071251,1.092451609722892,0.5292789340019226,0.6027730107307434,0.1004326120018959,0.06752282381057739,-0.03297251462936401,-0.03955459594726562,XArbitraryCorrectedZVertical,0.79813152551651,-0.1477307826280594,0.1022422611713409,0.5750723481178284,-0.3331173062324524,-0.8877580761909485,0.3176766335964203,-14.77880764007568,-59.73766326904297,7.877452850341797,2
2017-12-04 17:02:41.528 -0800,123,BF2B89E4-20AD-4334-A98B-17808832B17C,1512435759.838053,49.27719469936937,-122.9073998927614,343.4335,-1,-1,10,65,-9999,57765.73696604167,-0.491180419921875,-0.8488006591796875,0.0988616943359375,57765.71059904167,0.951284603485721,0.9533429606922432,0.3304884375828002,57765.71184904167,2.28661320414961,-2.319084461373642,1.06996066035351,0.8679410219192505,1.001096487045288,0.3159427046775818,-0.02538755536079407,-0.06839030981063843,-0.08357405662536621,XArbitraryCorrectedZVertical,0.8020824790000916,-0.1414563059806824,0.1192128136754036,0.5678396224975586,-0.3518860042095184,-0.8771815896034241,0.3266923725605011,-15.5528450012207,-59.24965667724609,8.557071685791016,2
2017-12-04 17:02:41.543 -0800,124,BF2B89E4-20AD-4334-A98B-17808832B17C,1512435759.838053,49.27719469936937,-122.9073998927614,343.4335,-1,-1,10,65,-9999,57765.76714204167,0.174835205078125,-0.9356231689453125,1.046417236328125,57765.74077504167,1.124002850718374,-0.5281266820836515,-1.25958917550427,57765.74702504167,2.345885338966148,-2.359644467813322,1.044258682707691,1.149433612823486,-0.6304921507835388,-1.425209164619446,-0.2034942507743835,0.08656758069992065,-0.2694777250289917,XArbitraryCorrectedZVertical,0.8123987913131714,-0.1352612972259521,0.1258674263954163,0.5530548691749573,-0.3541229367256165,-0.8645522594451904,0.3565748333930969,-15.69242095947266,-59.01148223876953,10.16061401367188,2
2017-12-04 17:02:41.571 -0800,125,BF2B89E4-20AD-4334-A98B-17808832B17C,1512435759.838053,49.27719469936937,-122.9073998927614,343.4335,-1,-1,10,65,-9999,57765.79731804167,-0.6567535400390625,-0.7272491455078125,0.31378173828125,57765.77095004167,-0.2418911933863711,-0.7225656711669908,0.7382554184130836,57765.78225904167,2.386626772091002,-2.433587740577674,1.037604858629265,0.1182102337479591,-0.454203873872757,1.043397068977356,0.05791795253753662,-0.1207290887832642,0.0487675666809082,XArbitraryCorrectedZVertical,0.820570170879364,-0.1404499262571335,0.1084195375442505,0.5433077812194824,-0.3305467665195465,-0.8611893057823181,0.3861231803894043,-14.60727596282959,-58.84284210205078,12.36746215820312,2
2017-12-04 17:02:41.601 -0800,126,BF2B89E4-20AD-4334-A98B-17808832B17C,1512435759.838053,49.27719469936937,-122.9073998927614,343.4335,-1,-1,10,65,-9999,57765.82749304167,-0.2098388671875,-0.7543792724609375,0.463470458984375,57765.80112604167,0.1690694502231354,-0.6563568233065309,-0.01109925647512324,57765.81743504167,2.381654338681031,-2.446434470833932,1.023403609662882,-0.0892789363861084,-0.6970133185386658,0.18670454621315,-0.06776350736618042,0.09411883354187012,0.05070352554321289,XArbitraryCorrectedZVertical,0.8231636881828308,-0.1491528451442719,0.1050590947270393,0.5376963019371033,-0.3333595395088196,-0.8538843989372253,0.3996900618076324,-15.05857276916504,-58.53927612304688,13.0814208984375,2
2017-12-04 17:02:41.631 -0800,127,BF2B89E4-20AD-4334-A98B-17808832B17C,1512435759.838053,49.27719469936937,-122.9073998927614,343.4335,-1,-1,10,65,-9999,57765.85766904167,-0.3638916015625,-0.7755126953125,0.2781219482421875,57765.83130204167,-0.1631708147247189,0.0268404027302546,0.4112240302413153,57765.81743504167,2.381654338681031,-2.446434470833932,1.023403609662882,-0.0892789363861084,-0.6970133185386658,0.18670454621315,-0.06776350736618042,0.09411883354187012,0.05070352554321289,XArbitraryCorrectedZVertical,0.8231636881828308,-0.1491528451442719,0.1050590947270393,0.5376963019371033,-0.3333595395088196,-0.8538843989372253,0.3996900618076324,-15.05857276916504,-58.53927612304688,13.0814208984375,2
2017-12-04 17:02:41.663 -0800,128,BF2B89E4-20AD-4334-A98B-17808832B17C,1512435759.838053,49.27719469936937,-122.9073998927614,343.4335,-1,-1,10,65,-9999,57765.88784504167,-0.241912841796875,-0.78857421875,0.427764892578125,57765.86147804167,0.09886186598592148,-0.2227803494039625,0.141898282885493,57765.85266904167,2.358153763258072,-2.429235961702304,1.018602193698409,-0.01755682565271854,0.1004945263266563,0.2668582201004028,0.0114695131778717,0.07471847534179688,-0.08953177928924561,XArbitraryCorrectedZVertical,0.8212122321128845,-0.155269667506218,0.1069207713007927,0.5385810732841492,-0.3428598940372467,-0.8513756394386292,0.396996408700943,-15.64669609069824,-58.38257598876953,13.05755996704102,2
2017-12-04 17:02:41.691 -0800,129,BF2B89E4-20AD-4334-A98B-17808832B17C,1512435759.838053,49.27719469936937,-122.9073998927614,343.4335,-1,-1,10,65,-9999,57765.91802104167,-0.3489990234375,-0.7435302734375,0.2025299072265625,57765.89165304167,0.1060811630689083,-0.01067980860343576,-0.07442603140389943,57765.88784504167,2.354198888857903,-2.432411724328615,1.013500651224241,0.04668803513050079,-0.1068208739161491,0.06262170523405075,0.1029506921768188,0.06362378597259521,-0.004477500915527344,XArbitraryCorrectedZVertical,0.8218483328819275,-0.1589094400405884,0.1057514026761055,0.5367768406867981,-0.3444210290908813,-0.8486884832382202,0.4013737738132477,-15.72713279724121,-58.32621765136719,13.2089958190918,2
2017-12-04 17:02:41.722 -0800,130,BF2B89E4-20AD-4334-A98B-17808832B17C,1512435759.838053,49.27719469936937,-122.9073998927614,343.4335,-1,-1,10,65,-9999,57765.94819604167,-0.455230712890625,-0.72882080078125,0.3350067138671875,57765.92182904167,0.422909714788474,-0.1755997875321187,-0.3325518547953936,57765.92307904167,2.372623664187468,-2.451862364912114,1.011888560478833,0.3668768405914307,-0.2101721316576004,-0.3050998151302338,-0.01556196808815002,0.09739226102828979,-0.2059265375137329,XArbitraryCorrectedZVertical,0.8245666027069092,-0.1568939238786697,0.103051446378231,0.5337173938751221,-0.3374195992946625,-0.8478347659111023,0.4090515673160553,-15.53364562988281,-58.14387512207031,13.57854461669922,2
2017-12-04 17:02:41.768 -0800,131,BF2B89E4-20AD-4334-A98B-17808832B17C,1512435759.838053,49.27719469936937,-122.9073998927614,343.4335,-1,-1,10,65,-9999,57765.97837204167,-0.4444122314453125,-0.7743682861328125,0.4607391357421875,57765.95200504167,0.4622171735297165,0.1442346741098195,-0.5880398171271642,57765.95825504167,2.416620656720807,-2.487707155838991,1.006985376500263,0.4536844491958618,0.1416499465703964,-0.5941667556762695,-0.1632891297340393,0.1109870076179504,-0.07087349891662598,XArbitraryCorrectedZVertical,0.8305474519729614,-0.1492604613304138,0.100989043712616,0.5269849300384521,-0.3250684142112732,-0.8452246189117432,0.424175500869751,-14.88379287719727,-58.25927734375,14.5651741027832,2
2017-12-04 17:02:41.782 -0800,132,BF2B89E4-20AD-4334-A98B-17808832B17C,1512435759.838053,49.27719469936937,-122.9073998927614,343.4335,-1,-1,10,65,-9999,57766.00854804167,-0.409576416015625,-0.7506103515625,0.5698699951171875,57765.98218104167,0.1236268672786773,0.08307358177949573,-0.7705670192867971,57765.99348904167,2.464827230082272,-2.525640800294905,1.01637809809981,0.009672528132796288,0.0736544132232666,-0.8169030547142029,-0.04698771238327026,0.03042840957641602,0.1422766447067261,XArbitraryCorrectedZVertical,0.8342769742012024,-0.1372278183698654,0.09587421268224716,0.5253171920776367,-0.3041475713253021,-0.8502068519592285,0.4296990931034088,-13.21861267089844,-58.79837799072266,15.17871475219727,2
2017-12-04 17:02:41.812 -0800,133,BF2B89E4-20AD-4334-A98B-17808832B17C,1512435759.838053,49.27719469936937,-122.9073998927614,343.4335,-1,-1,10,65,-9999,57766.03872404167,0.2236175537109375,-1.742904663085938,0.827545166015625,57766.01235604167,-0.6231309592305933,-0.5828695561868844,-1.555510581086169,57766.02866504167,2.525780165791524,-2.592616044158921,1.058035565733535,-0.8445173501968384,-0.7626660466194153,-1.855793595314026,-0.180026113986969,0.1432745456695557,0.01256382465362549,XArbitraryCorrectedZVertical,0.8333616852760315,-0.1214776113629341,0.0757707804441452,0.5338632464408875,-0.2559937834739685,-0.8713934421539307,0.4184970259666443,-10.91562843322754,-59.78092956542969,14.79359817504883,2
2017-12-04 17:02:41.850 -0800,134,BF2B89E4-20AD-4334-A98B-17808832B17C,1512435759.838053,49.27719469936937,-122.9073998927614,343.4335,-1,-1,10,65,-9999,57766.06889904167,-0.6616363525390625,-0.934326171875,0.353668212890625,57766.04253204167,0.1472062292541299,2.124792955707578,-0.6017931799446604,57766.02866504167,2.525780165791524,-2.592616044158921,1.058035565733535,-0.8445173501968384,-0.7626660466194153,-1.855793595314026,-0.180026113986969,0.1432745456695557,0.01256382465362549,XArbitraryCorrectedZVertical,0.8333616852760315,-0.1214776113629341,0.0757707804441452,0.5338632464408875,-0.2559937834739685,-0.8713934421539307,0.4184970259666443,-10.91562843322754,-59.78092956542969,14.79359817504883,2
2017-12-04 17:02:41.893 -0800,135,BF2B89E4-20AD-4334-A98B-17808832B17C,1512435759.838053,49.27719469936937,-122.9073998927614,343.4335,-1,-1,10,65,-9999,57766.11294204167,-0.0005645751953125,-0.9296722412109375,0.163665771484375,57766.07270804167,-0.6789718546512657,1.029988204232506,-0.747948259516536,57766.09907504167,2.587163775770149,-2.537871718551872,1.100018457879567,-0.7556674480438232,0.6736112236976624,-0.8177570700645447,-0.005331873893737793,0.004298627376556396,-0.06176853179931641,XArbitraryCorrectedZVertical,0.8254247903823853,-0.07330292463302612,0.1071930453181267,0.5493721961975098,-0.2575007677078247,-0.8912157416343689,0.3733988106250763,-8.868496894836426,-61.30659484863281,11.2177734375,2
2017-12-04 17:02:41.932 -0800,136,BF2B89E4-20AD-4334-A98B-17808832B17C,1512435759.838053,49.27719469936937,-122.9073998927614,343.4335,-1,-1,10,65,-9999,57766.14686804167,-0.2644805908203125,-0.6417236328125,0.2258453369140625,57766.11669204167,-0.6100577677555034,0.1384193955535225,-0.907724076483622,57766.13430904167,2.622046118384169,-2.565361497779391,1.137702504546948,-0.5826824903488159,-0.6578950881958008,-1.414731979370117,0.07394565641880035,0.1576869487762451,-0.2356996536254883,XArbitraryCorrectedZVertical,0.8200043439865112,-0.05956653878092766,0.09870722889900208,0.5606256723403931,-0.2286697775125504,-0.9076716899871826,0.3519105911254883,-6.020639419555664,-62.36469268798828,9.931354522705078,2
2017-12-04 17:02:41.953 -0800,137,BF2B89E4-20AD-4334-A98B-17808832B17C,1512435759.838053,49.27719469936937,-122.9073998927614,343.4335,-1,-1,10,65,-9999,57766.18079404167,-0.06097412109375,-1.0482177734375,0.09295654296875,57766.15061804167,-1.199626505664482,-2.582694210374712,-2.598672111650751,57766.16948504167,2.769757020320933,-2.795086428782398,1.21900852934469,-2.329594373703003,-4.370450019836426,-2.96124005317688,-0.1208620145916939,0.5439675450325012,0.005936980247497559,XArbitraryCorrectedZVertical,0.8119799494743347,-0.05230948328971863,0.0346757285296917,0.5803012251853943,-0.1170225068926811,-0.9387581944465637,0.3240954279899597,-0.4632472991943359,-63.92053985595703,8.111671447753906,2
2017-12-04 17:02:42.010 -0800,138,BF2B89E4-20AD-4334-A98B-17808832B17C,1512435759.838053,49.27719469936937,-122.9073998927614,343.4335,-1,-1,10,65,-9999,57766.21352804167,-0.0582275390625,-1.277755737304688,0.8062286376953125,57766.18335204167,-0.6285014898848471,-2.560420596281725,-2.553233789764037,57766.20472004167,3.011733005614094,-3.11594595075232,1.262551287253186,-0.05753043666481972,-1.370291709899902,-1.783189058303833,-0.03605850785970688,0.03569215536117554,-0.04393231868743896,XArbitraryCorrectedZVertical,0.805998682975769,-0.04482318460941315,-0.02796001173555851,0.5895549058914185,-0.007779991719871759,-0.9528674483299255,0.3032859861850739,5.477499008178711,-64.82843780517578,7.581695556640625,2
2017-12-04 17:02:42.024 -0800,139,BF2B89E4-20AD-4334-A98B-17808832B17C,1512435759.838053,49.27719469936937,-122.9073998927614,343.4335,-1,-1,10,65,-9999,57766.24745404167,-0.0091705322265625,-1.118301391601562,0.300445556640625,57766.21727804167,-0.02122885599734863,0.4966113663758719,-0.4552732473034439,57766.23989504167,3.094309852242848,3.105000495304195,1.271466679809957,-0.6191351413726807,1.397513389587402,-0.3817397952079773,-0.2455900907516479,0.06242215633392334,0.3420069217681885,XArbitraryCorrectedZVertical,0.8040198683738708,-0.02987772971391678,-0.0287505779415369,0.5931547284126282,0.01078783813863993,-0.9555343985557556,0.2946812510490417,6.333269119262695,-64.92466735839844,6.799766540527344,2
2017-12-04 17:02:42.054 -0800,140,BF2B89E4-20AD-4334-A98B-17808832B17C,1512435759.838053,49.27719469936937,-122.9073998927614,343.4335,-1,-1,10,65,-9999,57766.28138004167,0.4594268798828125,-0.984130859375,0.3224334716796875,57766.25120404167,-0.6763345262237602,1.656602844485032,0.2818697687223136,57766.23989504167,3.094309852242848,3.105000495304195,1.271466679809957,-0.6191351413726807,1.397513389587402,-0.3817397952079773,-0.2455900907516479,0.06242215633392334,0.3420069217681885,XArbitraryCorrectedZVertical,0.8040198683738708,-0.02987772971391678,-0.0287505779415369,0.5931547284126282,0.01078783813863993,-0.9555343985557556,0.2946812510490417,6.333269119262695,-64.92466735839844,6.799766540527344,2
2017-12-04 17:02:42.094 -0800,141,BF2B89E4-20AD-4334-A98B-17808832B17C,1512435759.838053,49.27719469936937,-122.9073998927614,343.4335,-1,-1,10,65,-9999,57766.31411404167,-0.2725677490234375,-1.02001953125,0.058624267578125,57766.28393804167,-0.8395500820547925,1.666865069429543,0.8968280191996717,57766.31030504167,2.927557809273429,-2.907602022228716,1.320478835546129,-0.6155776977539062,0.8403289914131165,0.3139697313308716,0.01243632659316063,-0.02788549661636353,-0.1629573106765747,XArbitraryCorrectedZVertical,0.7876046895980835,-0.01260837912559509,0.02660863101482391,0.6154767870903015,-0.05743449553847313,-0.9688338041305542,0.2409602403640747,3.368856430053711,-64.65664672851562,3.444713592529297,2
2017-12-04 17:02:42.124 -0800,142,BF2B89E4-20AD-4334-A98B-17808832B17C,1512435759.838053,49.27719469936937,-122.9073998927614,343.4335,-1,-1,10,65,-9999,57766.34804004167,-0.2647552490234375,-0.940673828125,0.029205322265625,57766.31786404167,-0.3109051488230115,0.321071766284389,-0.09196640929148832,57766.31030504167,2.927557809273429,-2.907602022228716,1.320478835546129,-0.6155776977539062,0.8403289914131165,0.3139697313308716,0.01243632659316063,-0.02788549661636353,-0.1629573106765747,XArbitraryCorrectedZVertical,0.7876046895980835,-0.01260837912559509,0.02660863101482391,0.6154767870903015,-0.05743449553847313,-0.9688338041305542,0.2409602403640747,3.368856430053711,-64.65664672851562,3.444713592529297,2
2017-12-04 17:02:42.172 -0800,143,BF2B89E4-20AD-4334-A98B-17808832B17C,1512435759.838053,49.27719469936937,-122.9073998927614,343.4335,-1,-1,10,65,-9999,57766.38196504167,0.2503204345703125,-1.0296630859375,0.206146240234375,57766.35179004167,0.2552280378093789,0.06026467230740308,-0.6253184797499843,57766.34554004167,2.957326495457053,-2.929097285339708,1.329028071515793,0.06430312991142273,0.02424017339944839,-0.563988208770752,-0.2532479465007782,0.02653437852859497,-0.2320506572723389,XArbitraryCorrectedZVertical,0.7854741215705872,-0.006897789891809225,0.02671252377331257,0.6182792186737061,-0.0504935123026371,-0.9709161520004272,0.2340343445539474,4.119108200073242,-64.92170715332031,3.059883117675781,2
2017-12-04 17:02:42.194 -0800,144,BF2B89E4-20AD-4334-A98B-17808832B17C,1512435759.838053,49.27719469936937,-122.9073998927614,343.4335,-1,-1,10,65,-9999,57766.41470004167,0.056549072265625,-0.973602294921875,0.159088134765625,57766.38452404167,0.6127310488577249,0.5573229171141902,-0.09513237519537451,57766.38071504167,3.045984001150399,-3.00508974631938,1.318498092266249,0.595217227935791,0.8118242621421814,-0.3080341517925262,0.1662020832300186,-0.1281095743179321,-0.06897783279418945,XArbitraryCorrectedZVertical,0.7897071242332458,0.004040750674903393,0.02464406006038189,0.6129754185676575,-0.03396941721439362,-0.9683412909507751,0.2473073452711105,4.959846496582031,-64.84928894042969,3.764472961425781,2
2017-12-04 17:02:42.226 -0800,145,BF2B89E4-20AD-4334-A98B-17808832B17C,1512435759.838053,49.27719469936937,-122.9073998927614,343.4335,-1,-1,10,65,-9999,57766.44862604167,-0.1795196533203125,-0.9558868408203125,0.3626251220703125,57766.41845004167,0.9996321625472375,0.5559961302591128,0.09812923037004068,57766.41595004167,3.053826822842872,-3.001097403531277,1.293676926439488,0.8925529718399048,0.3653339743614197,0.1339402198791504,0.0948602706193924,-0.01175475120544434,-0.1118021011352539,XArbitraryCorrectedZVertical,0.7971143126487732,0.007339675910770893,0.02958402596414089,0.6030585765838623,-0.0383111909031868,-0.9618475437164307,0.2708902060985565,4.806108474731445,-65.06095886230469,5.329696655273438,2
2017-12-04 17:02:42.255 -0800,146,BF2B89E4-20AD-4334-A98B-17808832B17C,1512435759.838053,49.27719469936937,-122.9073998927614,343.4335,-1,-1,10,65,-9999,57766.482550375,0.062652587890625,-0.899688720703125,0.3843841552734375,57766.45237604167,0.6681141468870126,0.5552568367405069,-0.0793081383142327,57766.45112604167,3.059901061938043,-2.986432806381501,1.259397307567943,0.8395684361457825,0.5991845726966858,0.04323094338178635,-0.1158132627606392,0.01007235050201416,-0.008489727973937988,XArbitraryCorrectedZVertical,0.8069656491279602,0.01269970275461674,0.03861022368073463,0.5891980528831482,-0.04734896868467331,-0.9519058465957642,0.3027096688747406,4.541160583496094,-64.89537811279297,7.388389587402344,2
2017-12-04 17:02:42.295 -0800,147,BF2B89E4-20AD-4334-A98B-17808832B17C,1512435759.838053,49.27719469936937,-122.9073998927614,343.4335,-1,-1,10,65,-9999,57766.515285375,-0.0573883056640625,-0.95098876953125,0.62542724609375,57766.485109375,0.1016422061639642,0.1310269929996805,-0.1467793245313902,57766.48635937501,3.087865015191727,-3.000400402966016,1.24597791284488,0.1588563174009323,0.160455197095871,-0.1479837149381638,0.1263156831264496,0.06439262628555298,0.06439507007598877,XArbitraryCorrectedZVertical,0.8109283447265625,0.01938115805387497,0.04163233563303947,0.5833406448364258,-0.04491004720330238,-0.9477086663246155,0.3159608244895935,4.771757125854492,-64.62271881103516,7.874462127685547,2
2017-12-04 17:02:42.329 -0800,148,BF2B89E4-20AD-4334-A98B-17808832B17C,1512435759.838053,49.27719469936937,-122.9073998927614,343.4335,-1,-1,10,65,-9999,57766.549210375,0.00439453125,-0.980194091796875,0.1886749267578125,57766.519035375,-0.6382422678879209,0.6211839221576364,-0.08408212088430873,57766.521535375,3.1004877205789,-3.001439259025584,1.253435885975527,-0.5636915564537048,0.6034280061721802,-0.08303891122341156,-0.01379500329494476,-0.0009263753890991211,0.3164266347885132,XArbitraryCorrectedZVertical,0.8086423277854919,0.02445236593484879,0.04467733576893806,0.586091935634613,-0.04359330236911774,-0.9500624537467957,0.3090006709098816,4.968929290771484,-64.85570526123047,7.580307006835938,2
2017-12-04 17:02:42.355 -0800,149,BF2B89E4-20AD-4334-A98B-17808832B17C,1512435759.838053,49.27719469936937,-122.9073998927614,343.4335,-1,-1,10,65,-9999,57766.583136375,-0.0440826416015625,-1.133331298828125,0.0341796875,57766.552960375,-0.5872517877606097,0.2159818317732082,0.02552666536451851,57766.55676937501,3.089413309770003,-2.974935534382909,1.281360802918664,-0.6341440081596375,0.2385511100292206,0.03984916210174561,0.06068206205964088,-0.06050050258636475,-0.2369771003723145,XArbitraryCorrectedZVertical,0.7999333739280701,0.02889347821474075,0.05116459727287292,0.5972050428390503,-0.04734587669372559,-0.9584051370620728,0.281456470489502,4.979425430297852,-64.88085174560547,6.057331085205078,2
2017-12-04 17:02:42.414 -0800,150,BF2B89E4-20AD-4334-A98B-17808832B17C,1512435759.838053,49.27719469936937,-122.9073998927614,343.4335,-1,-1,10,65,-9999,57766.615870375,0.1137237548828125,-1.068161010742188,0.466583251953125,57766.585695375,0.07634670318206457,-0.2920784641289144,0.2376791378063018,57766.591945375,3.077558163469031,-2.971783934208627,1.282768210932186,0.07729112356901169,-0.2540217638015747,0.2699381709098816,0.02958721667528152,-0.16804039478302,-0.1729350090026855,XArbitraryCorrectedZVertical,0.7995967864990234,0.02515407651662827,0.04883076250553131,0.5980197191238403,-0.04800457507371902,-0.9588058590888977,0.2799755036830902,4.95002555847168,-64.72652435302734,5.811290740966797,2
2017-12-04 17:02:42.426 -0800,151,BF2B89E4-20AD-4334-A98B-17808832B17C,1512435759.838053,49.27719469936937,-122.9073998927614,343.4335,-1,-1,10,65,-9999,57766.649796375,-0.0762176513671875,-1.0721435546875,0.0018768310546875,57766.619620375,0.03559874060719818,1.191410920017697,0.6640640115012202,57766.62717937501,3.016859763907985,-2.889509467006279,1.277874620458062,0.045187097042799,1.209718227386475,0.6985021829605103,0.1715075671672821,-0.09670335054397583,0.06095325946807861,XArbitraryCorrectedZVertical,0.7994855642318726,0.02518535777926445,0.06384047865867615,0.5967516303062439,-0.0720202773809433,-0.9574043154716492,0.2796229422092438,3.395114898681641,-64.65847015380859,5.927257537841797,2
2017-12-04 17:02:42.456 -0800,152,BF2B89E4-20AD-4334-A98B-17808832B17C,1512435759.838053,49.27719469936937,-122.9073998927614,343.4335,-1,-1,10,65,-9999,57766.683722375,-0.363983154296875,-1.05511474609375,0.2315826416015625,57766.653546375,0.5064853024334497,1.225295916463429,1.14085400251585,57766.662355375,2.92388851000548,-2.757444084604289,1.25698516987476,0.4965750277042389,1.196283340454102,1.263470649719238,0.05988407880067825,-0.1845323443412781,-0.2618639469146729,XArbitraryCorrectedZVertical,0.8015315532684326,0.02530605532228947,0.09080780297517776,0.5904746055603027,-0.1156854704022408,-0.9511640071868896,0.2861864566802979,1.294769287109375,-64.22243499755859,6.214683532714844,2
2017-12-04 17:02:42.497 -0800,153,BF2B89E4-20AD-4334-A98B-17808832B17C,1512435759.838053,49.27719469936937,-122.9073998927614,343.4335,-1,-1,10,65,-9999,57766.716456375,-1.387359619140625,-0.1065673828125,-0.107940673828125,57766.686280375,0.3503644077463886,2.387867997668875,5.741044006175501,57766.69758937501,2.634748006108937,-2.417470406047276,1.169884392634373,0.6007170677185059,2.460022211074829,6.901811599731445,-0.7978756427764893,0.02388542890548706,-0.1728266477584839,XArbitraryCorrectedZVertical,0.8038213849067688,-0.006155947223305702,0.1564217209815979,0.5739032030105591,-0.2585360705852509,-0.9207054972648621,0.2923334240913391,-8.290924072265625,-62.05101776123047,6.687446594238281,2
2017-12-04 17:02:42.527 -0800,154,BF2B89E4-20AD-4334-A98B-17808832B17C,1512435759.838053,49.27719469936937,-122.9073998927614,343.4335,-1,-1,10,65,-9999,57766.750382375,0.211029052734375,-0.1125030517578125,0.14959716796875,57766.720206375,0.520207239950083,-0.6620868807079454,0.02584571206311,57766.732765375,2.606589546496457,-2.375454273399849,1.118653564390924,0.3121102452278137,-0.4165652394294739,1.415365695953369,0.8614396452903748,0.02356696128845215,-0.1378804445266724,XArbitraryCorrectedZVertical,0.8106400966644287,-0.01653056964278221,0.1754545718431473,0.5583943724632263,-0.3029221892356873,-0.8995130062103271,0.3148212432861328,-9.894087791442871,-61.35154724121094,7.95709228515625,2
2017-12-04 17:02:42.571 -0800,155,BF2B89E4-20AD-4334-A98B-17808832B17C,1512435759.838053,49.27719469936937,-122.9073998927614,343.4335,-1,-1,10,65,-9999,57766.784308375,0.2872467041015625,-1.226287841796875,1.046463012695312,57766.754132375,-1.924675308231863,-2.219913612994156,-0.354143167017102,57766.76799937501,2.599800079290425,-2.431349184560115,1.163598956905898,-1.147306323051453,-0.8891714215278625,-0.7872744202613831,0.6275006532669067,0.001821994781494141,0.7161885499954224,XArbitraryCorrectedZVertical,0.8059074878692627,-0.02551378309726715,0.1420283168554306,0.5741860866546631,-0.2582226991653442,-0.9182343482971191,0.3002756536006927,-7.489700317382812,-62.40435028076172,6.613998413085938,2
2017-12-04 17:02:42.597 -0800,156,BF2B89E4-20AD-4334-A98B-17808832B17C,1512435759.838053,49.27719469936937,-122.9073998927614,343.4335,-1,-1,10,65,-9999,57766.81704237501,-0.2714385986328125,-1.135238647460938,-0.4213409423828125,57766.78686637501,-0.9484874853928108,1.693096140902387,-1.548931241613128,57766.803175375,2.64313111144387,-2.431392646344682,1.221299692075703,-0.9759160280227661,1.940784931182861,-1.372644305229187,0.4221693277359009,-0.2038111686706543,0.1408451795578003,XArbitraryCorrectedZVertical,0.7936022877693176,0.003728513140231371,0.1434376537799835,0.5912757515907288,-0.2232557386159897,-0.939545214176178,0.2596369981765747,-5.113561630249023,-63.044677734375,4.464092254638672,2
2017-12-04 17:02:42.648 -0800,157,BF2B89E4-20AD-4334-A98B-17808832B17C,1512435759.838053,49.27719469936937,-122.9073998927614,343.4335,-1,-1,10,65,-9999,57766.850968375,-0.3564300537109375,-1.087478637695312,0.01171875,57766.820792375,-0.5198596974278276,0.1619558806354247,-1.392762676342554,57766.83840937501,2.712539688705462,-2.477800254118644,1.265461900206129,-0.3487779796123505,-0.3971988558769226,-1.045969009399414,-0.06598195433616638,-0.229877769947052,-0.4696736335754395,XArbitraryCorrectedZVertical,0.7859486937522888,0.02596181631088257,0.1377167552709579,0.6021994352340698,-0.1852082312107086,-0.953746497631073,0.236778736114502,-2.181632995605469,-63.89087677001953,3.133113861083984,2
2017-12-04 17:02:42.657 -0800,158,BF2B89E4-20AD-4334-A98B-17808832B17C,1512435759.838053,49.27719469936937,-122.9073998927614,343.4335,-1,-1,10,65,-9999,57766.88489337501,-0.0047454833984375,-1.052001953125,-0.0092010498046875,57766.85471837501,-0.5675169651347955,-0.9706630951576826,-1.099754236360984,57766.873585375,2.786418275220603,-2.579362853424323,1.301458996481657,-0.5402638912200928,-1.167492151260376,-1.234996199607849,-0.01530420780181885,-0.125453770160675,-0.2014034986495972,XArbitraryCorrectedZVertical,0.7820759415626526,0.03037612326443195,0.1144492924213409,0.6118295788764954,-0.1418460607528687,-0.9639474153518677,0.2251309752464294,0.02007675170898438,-64.30851745605469,2.619777679443359,2
2017-12-04 17:02:42.697 -0800,159,BF2B89E4-20AD-4334-A98B-17808832B17C,1512435759.838053,49.27719469936937,-122.9073998927614,343.4335,-1,-1,10,65,-9999,57766.91762837501,-0.2176513671875,-0.993255615234375,0.2031097412109375,57766.88745237501,-0.2999595567427858,-1.420278190409144,-1.138928270731614,57766.90881937501,2.892202798502325,-2.727951790529986,1.323388946904765,0.2367597222328186,-1.22306215763092,-0.4430865049362183,-0.002565592527389526,-0.107231616973877,-0.07416617870330811,XArbitraryCorrectedZVertical,0.7818360328674316,0.02916567958891392,0.08596014976501465,0.6168406009674072,-0.09843233227729797,-0.969550609588623,0.2242364436388016,2.366401672363281,-64.51633453369141,2.249870300292969,2
2017-12-04 17:02:42.728 -0800,160,BF2B89E4-20AD-4334-A98B-17808832B17C,1512435759.838053,49.27719469936937,-122.9073998927614,343.4335,-1,-1,10,65,-9999,57766.951553375,-0.131317138671875,-0.8456268310546875,0.34210205078125,57766.921378375,0.4613199545584689,-0.3984291391001387,-0.3918916112562121,57766.943995375,2.967230396666623,-2.812978225390439,1.315887040711018,0.307140976190567,0.1665024757385254,-0.5110275745391846,-0.1562918722629547,0.02455562353134155,0.05273318290710449,XArbitraryCorrectedZVertical,0.7863388061523438,0.03167412430047989,0.07640659809112549,0.6122335195541382,-0.08137902617454529,-0.9676861763000488,0.2386639416217804,3.038360595703125,-64.61705017089844,3.35101318359375,2
2017-12-04 17:02:42.758 -0800,161,BF2B89E4-20AD-4334-A98B-17808832B17C,1512435759.838053,49.27719469936937,-122.9073998927614,343.4335,-1,-1,10,65,-9999,57766.98547937501,-0.011505126953125,-0.852508544921875,0.272979736328125,57766.95530337501,-0.01909246817088707,0.141764325882662,-0.2577300776535084,57766.943995375,2.967230396666623,-2.812978225390439,1.315887040711018,0.307140976190567,0.1665024757385254,-0.5110275745391846,-0.1562918722629547,0.02455562353134155,0.05273318290710449,XArbitraryCorrectedZVertical,0.7863388061523438,0.03167412430047989,0.07640659809112549,0.6122335195541382,-0.08137902617454529,-0.9676861763000488,0.2386639416217804,3.038360595703125,-64.61705017089844,3.35101318359375,2
2017-12-04 17:02:42.808 -0800,162,BF2B89E4-20AD-4334-A98B-17808832B17C,1512435759.838053,49.27719469936937,-122.9073998927614,343.4335,-1,-1,10,65,-9999,57767.01821337501,0.0484771728515625,-0.9677734375,0.46484375,57766.98803837501,-0.1582037529756121,-0.5196567645527636,-0.4656555808131179,57767.014405375,3.058750977202611,-2.917053071942724,1.327299043467475,-0.1911532878875732,-0.220376655459404,-0.2595298290252686,0.04669356718659401,0.07261252403259277,0.1169754266738892,XArbitraryCorrectedZVertical,0.7849760055541992,0.03653880581259727,0.06283180415630341,0.6152475476264954,-0.05368209630250931,-0.9705007076263428,0.2350448220968246,4.773591995239258,-64.97781372070312,3.06005859375,2
2017-12-04 17:02:42.828 -0800,163,BF2B89E4-20AD-4334-A98B-17808832B17C,1512435759.838053,49.27719469936937,-122.9073998927614,343.4335,-1,-1,10,65,-9999,57767.052139375,-0.0405731201171875,-1.0025634765625,0.22210693359375,57767.021963375,-0.3429325904084135,-0.08420915366830552,-0.2360135968605662,57767.014405375,3.058750977202611,-2.917053071942724,1.327299043467475,-0.1911532878875732,-0.220376655459404,-0.2595298290252686,0.04669356718659401,0.07261252403259277,0.1169754266738892,XArbitraryCorrectedZVertical,0.7849760055541992,0.03653880581259727,0.06283180415630341,0.6152475476264954,-0.05368209630250931,-0.9705007076263428,0.2350448220968246,4.773591995239258,-64.97781372070312,3.06005859375,2
2017-12-04 17:02:42.858 -0800,164,BF2B89E4-20AD-4334-A98B-17808832B17C,1512435759.838053,49.27719469936937,-122.9073998927614,343.4335,-1,-1,10,65,-9999,57767.08606537501,-0.0678253173828125,-1.036163330078125,0.020965576171875,57767.05588937501,-0.4097853906204545,0.5876328861126001,0.06396433569374116,57767.049639375,3.073902387856061,-2.930079597488801,1.339317894228675,-0.3937620222568512,0.3369472622871399,-0.04635673016309738,-0.03487490490078926,-0.04524171352386475,-0.005537867546081543,XArbitraryCorrectedZVertical,0.7814233899116516,0.03910280764102936,0.06182774156332016,0.6196979880332947,-0.04816342517733574,-0.9733282923698425,0.2243030816316605,5.155439376831055,-64.86271667480469,2.30841064453125,2
2017-12-04 17:02:42.899 -0800,165,BF2B89E4-20AD-4334-A98B-17808832B17C,1512435759.838053,49.27719469936937,-122.9073998927614,343.4335,-1,-1,10,65,-9999,57767.11879937501,-0.022125244140625,-1.016326904296875,0.2079620361328125,57767.08862337501,-0.2256389865180535,-0.1861389812299983,-0.07645243067734073,57767.084815375,3.05943220506613,-2.903210093321231,1.349975961335573,-0.29161536693573,0.01429169625043869,-0.02843047119677067,-0.03478280827403069,-0.02766937017440796,-0.1476634740829468,XArbitraryCorrectedZVertical,0.7775722146034241,0.04240687564015388,0.06727436184883118,0.6237441897392273,-0.05171926319599152,-0.975718080997467,0.2128337770700455,5.113534927368164,-64.86540985107422,1.747230529785156,2
